acc_x, acc_y, angular_z, stamp, 
-0.06499181687439581,0.001318368909041634,0.00028920576078554774,697197000000,
-0.05032002440414259,0.03304293908804632,0.00015905175449596793,697202000000,
-0.08438145258870619,-0.012996832103355522,-0.000400204126917548,697208000000,
-0.06514136769169218,0.021566448690097266,-8.379973898012735e-05,697213000000,
-0.040179228891114624,-0.026921140146599815,-0.0003476291370676013,697218000000,
-0.05630114861676434,-0.007803761562838898,-4.622777718646707e-05,697223000000,
-0.05474032751248945,0.0017536632827268436,-4.114356647352006e-06,697229000000,
-0.053582350141910436,0.013305182587872477,-0.0002714540717998154,697234000000,
-0.06491592448654727,-0.023571334402654465,9.757702205086092e-05,697239000000,
-0.03975666779111893,0.0032189422678066395,-1.3718546585779179e-05,697244000000,
-0.061340098607401056,-0.019980986574474793,0.00034316549176787006,697249000000,
-0.0453966540287942,-0.012342021632677435,0.00013776067154046363,697254000000,
-0.04666627750724251,-0.0014241794350039732,-0.00019668640755302432,697259000000,
-0.05049798597692873,0.005287756445660603,0.0001454529608954786,697264000000,
-0.03965855656182311,0.01812822139873784,-0.00016551569194994136,697269000000,
-0.048197956855767894,0.021391075977302224,-1.918639173399867e-05,697274000000,
-0.04538184936804632,-0.006126045143709392,-0.0003104139622912577,697279000000,
-0.06396242701573808,0.013230501747526342,-7.406210424479404e-05,697284000000,
-0.046814136835729644,0.01637926540438528,0.00010949711303360227,697289000000,
-0.06895179240462433,0.041995980844349155,-0.00043589542549200524,697295000000,
-0.06626692889879374,-0.011653526537155012,-2.6831791824545247e-05,697301000000,
-0.07231746264251941,0.00900520841350113,0.00018834053834014222,697306000000,
-0.030631512230910853,-0.010260727544743945,-0.00019475122495399888,697311000000,
-0.04813469387802698,0.01353822153147226,4.917932759265708e-05,697316000000,
-0.05417530756131018,-0.037682245879966283,-0.00017795588292816001,697321000000,
-0.03679494409315058,0.017518993549935784,-8.032347008156491e-05,697326000000,
-0.07030942337935242,0.005392257339909526,-7.722878814208709e-05,697331000000,
-0.08328185253237945,-0.010667622943700963,-7.737769371919022e-05,697336000000,
-0.0466120676149935,-0.0003782297810799721,9.60970559206461e-05,697341000000,
-0.058338372247933666,-0.013773686593907118,0.0003376065857762761,697347000000,
-0.036922198439194545,0.012635700982963764,5.5945350606762875e-05,697352000000,
-0.055148075540219194,0.007582451335209623,0.00019980421112735314,697357000000,
-0.05760482018196049,-0.0015867374960051547,9.530103103028028e-05,697362000000,
-0.06608234793858687,0.019409692750889964,4.563638982444492e-05,697367000000,
-0.08814860299347947,0.004518424623920266,0.00017853592017672815,697372000000,
-0.036790434773971564,0.009931139230032183,5.346747097370627e-05,697379000000,
-0.041774615128806,0.00449037242403952,-0.00019134837988325163,697384000000,
-0.06698155083202051,0.008175648441630289,0.00028276441221397196,697389000000,
-0.038488359930623106,-0.03864137938486202,-0.00024082713334287165,697394000000,
-0.07286749802081476,0.039239182529296944,-0.0003796510925356224,697399000000,
-0.04645119297011766,0.012465797494793979,9.298127501774558e-05,697404000000,
-0.05541166796408824,-0.012440405999222559,0.00010987712915944747,697409000000,
-0.07917220165306538,-0.0021721809909744875,8.703878896507519e-05,697414000000,
-0.044676211445024,-0.0009877457776655127,0.0003656315990064824,697419000000,
-0.04574779707770464,0.031089286541714455,-9.196675396369003e-05,697424000000,
-0.04345565515237835,0.021568172752442476,-9.40996006709048e-05,697429000000,
-0.013171996491576105,0.0037072269724600674,-0.00013258377421339825,697434000000,
-0.04574813693583091,0.022192044285159297,-7.249937760722329e-05,697439000000,
-0.05121196478245763,-0.042465245781736174,-1.6953534737552792e-06,697445000000,
-0.04381142745579156,-0.0038332688115418094,0.00022142048791490073,697450000000,
-0.05402330195803593,-0.04282014212206023,-0.00011332556533108895,697455000000,
-0.0482771047725097,-0.004947387680160217,0.0002769679600531371,697460000000,
-0.06347182121736741,0.015386262099404946,0.0002289289016251743,697465000000,
-0.041388938365657366,0.006369685043279954,-0.0003172377990275045,697470000000,
-0.037412565017241065,0.008355824085123439,2.138849756265597e-05,697475000000,
-0.05888175932084369,0.03659223111951987,7.10765357590201e-05,697480000000,
-0.09055542985638063,0.0016596263503282846,0.00027451850518772907,697485000000,
-0.07766488867952419,0.005144574198158855,-0.00019860614134874308,697491000000,
-0.04681253655690747,0.003113839400801373,2.1947459587428483e-05,697496000000,
-0.034897230724904,0.015238797819458954,-0.00017980491872845734,697501000000,
-0.07250088973138973,-0.023195337291734393,0.00025924076159539346,697506000000,
-0.06543764398459698,0.030861014798698343,5.3330826666141166e-05,697511000000,
-0.056903299335315315,0.006513268270581374,8.347974415591527e-05,697516000000,
-0.0540611082172633,-0.025529163587761933,0.00038894311651300215,697521000000,
-0.04341572437238153,0.0090007190918813,-3.128954495689885e-05,697527000000,
-0.058846859126982586,0.006785100281551888,0.00017285354317177754,697532000000,
-0.06482665863495125,-0.004372518023339604,0.00026317310243153624,697537000000,
-0.06593285864045012,-0.0038886801966581635,9.562544377182593e-05,697544000000,
-0.08850309771528231,0.0021494335535190154,-2.283831042387366e-05,697549000000,
-0.043884067913187254,0.00155728683635664,-0.00025636324005534893,697554000000,
-0.03126405661451115,0.022855687752712888,0.00031706878516112903,697559000000,
-0.08049612051031574,0.012690849968613064,0.00019699138234926695,697564000000,
-0.0497950861176099,-0.04151116436816716,0.0002531591390295813,697569000000,
-0.07949528582210011,-0.0005952842859802276,-0.00020048230188861102,697574000000,
-0.07057179431994462,0.02566276346176897,-0.00010343613237911105,697579000000,
-0.041417614965950394,-0.003548511237857351,0.00017084053089521875,697584000000,
-0.07336099111326708,0.02420891318898478,0.00011142615039443618,697589000000,
-0.06431311675176024,-0.008592258115753563,5.2166515409003774e-05,697594000000,
-0.06418515689294786,0.02275309551826654,0.00017823994074566226,697599000000,
-0.04035741985884059,-0.015820304117039254,-0.0001501987641145136,697604000000,
-0.0549696019441995,-0.006423912417298689,0.00022212921128528343,697609000000,
-0.059645631333078916,-0.0004885881961479902,-1.4493539782843823e-05,697614000000,
-0.05019216871415363,0.023980460270988362,0.0001040801442092204,697619000000,
-0.04315117307355399,0.0064663556712437065,8.19605311879288e-05,697624000000,
-0.04420862634332341,0.03201635028526904,8.980181555836311e-05,697629000000,
-0.07105469959099248,-0.03473707731542132,-7.193268283996251e-05,697634000000,
-0.07531413512717611,-0.013369145594735097,2.6923714476191406e-05,697639000000,
-0.059004084378283056,-0.014361378965553794,-0.00028856067229072053,697644000000,
-0.055262567249659826,-0.03255147687781302,2.9170765571995203e-05,697649000000,
-0.04035513924583464,0.0016271868207531049,-2.42330916439135e-05,697654000000,
-0.05184667625407336,0.009438627302427258,0.00022265796361624227,697659000000,
-0.05480445720800822,-0.0026909998306960817,0.0001866380497318878,697665000000,
-0.06450262195351382,-0.02283976583191353,-3.5735553659762916e-05,697671000000,
-0.06602827824536386,0.02015685495043069,1.0109590464400035e-05,697676000000,
-0.08172817863992078,0.004856547380784377,0.00033603666280155,697681000000,
-0.06002049720464289,0.01049372276585203,-2.7012462528971925e-05,697686000000,
-0.03202161726120209,0.00892044265406278,-4.112497967232441e-05,697691000000,
-0.06607793069683322,-0.03226864544139146,0.00032427341867481257,697697000000,
-0.05134186921293587,0.02437483613909823,-0.00014932806466133033,697702000000,
-0.05669381642111916,0.036824410837301605,0.00019931186305214698,697707000000,
-0.06547102921292891,0.010810329666440879,-0.0001755391323872106,697713000000,
-0.041425327582491164,-0.013119671905414423,-0.00016329879664811145,697718000000,
-0.06701931095561399,0.011568115317933392,-0.00035801593983614217,697723000000,
-0.025683090280383795,-0.016242842031091612,0.00017052792397761652,697728000000,
-0.09980001967203511,-0.020988067490878445,4.308880522174798e-05,697733000000,
-0.06252295282656815,0.017762797871616602,7.349152943580721e-05,697739000000,
-0.04314141071076132,-0.013119151077109929,-0.00012313352116385536,697744000000,
-0.031153481285075637,-0.001299728915222323,3.552672823288546e-07,697749000000,
-0.05594386922419529,-0.0024884870297590613,-0.0003639538354420497,697754000000,
-0.03668731742926107,-0.003829470361345803,-0.0004395055698084211,697759000000,
-0.06929609688881705,-0.005529903262972154,-0.00042304580562737675,697764000000,
-0.052089726961104,0.006672485366021191,0.00013663847448191393,697769000000,
-0.07546011160510468,-0.009396510894085008,-0.0003360229217808082,697774000000,
-0.04368322647698841,-3.1055194220615603e-06,0.00020214694808440832,697779000000,
-0.05047929808155495,0.006054908180605153,-0.00028499654831081497,697784000000,
-0.033740920122009126,0.013773617137452591,0.00012675749607240935,697789000000,
-0.05903387112871402,0.012846439801015587,-0.00018190281927374822,697794000000,
-0.05204122554744487,0.015337118673026761,-0.0002632754403830107,697799000000,
-0.051847470830379105,-0.00415001297573413,0.0001357358215754098,697804000000,
-0.04340564308449101,0.00941260202825362,-0.0003095610227179084,697809000000,
-0.0596422253283619,0.006630737670056207,0.00019159791124874484,697814000000,
-0.08273532327859733,0.020340522539083798,-7.168179884435795e-06,697819000000,
-0.07205876874351148,-0.02294008523249733,-6.017600068919008e-06,697824000000,
-0.08667316359026583,-0.015203262670668644,-0.00013545252801537642,697830000000,
-0.07854043744825862,-0.007118224824023832,0.00024400540835843498,697835000000,
-0.06316425313983884,0.010244154438556152,0.00020758929198078866,697840000000,
-0.056262258522908615,0.00527705539406718,4.992398554407836e-05,697845000000,
-0.06303075590869364,0.00021206009239635036,-4.929091855015793e-05,697850000000,
-0.032466778268057855,0.04527329466261462,0.00029409336849633045,697855000000,
-0.06645325260738164,-0.0031470954520742235,-0.00012509943420986494,697860000000,
-0.07431013954318327,0.015026606454338051,0.00025238617777934935,697865000000,
-0.03943187030158785,0.0032385932424113437,-0.00037253912426161024,697870000000,
-0.03640152435362734,-0.008917079598185733,0.00016927316562487664,697875000000,
-0.046298680408322815,-0.0038311050298197435,9.869437405116046e-05,697880000000,
-0.0331798229239723,-0.017879741500497516,-0.00016054513875983774,697885000000,
-0.07602140702090585,0.0356544499171154,-0.0003178548426565381,697890000000,
-0.06496593275755218,0.025329501333916368,-0.0004323573245767686,697895000000,
-0.05970465632768892,0.022239359433459813,0.0004089984277967496,697901000000,
-0.08637393917278856,0.006866312199443288,0.00018306446726069103,697906000000,
-0.048089890991372564,0.015136763394759426,-0.0003660114022828069,697911000000,
-0.0775631870790089,-0.01588779916670041,0.00013269970645007488,697916000000,
-0.05871452706684581,0.011930906184657952,-0.0001618137285830597,697921000000,
-0.050027775839463884,0.007361905090289305,-0.0003775842688424821,697926000000,
-0.047991686257650976,0.004987433961878439,-6.493593918459563e-05,697931000000,
-0.05368173446616716,-0.009610520214728734,0.00010135722686522094,697936000000,
-0.05840591503774373,0.02477985548343935,1.6418569022826958e-06,697941000000,
-0.06549897888258326,0.026988434836040038,-0.0004886413071643279,697946000000,
-0.035116385370684275,0.0021152483818978485,9.715048134215878e-05,697951000000,
-0.06309721888843732,0.02694113556701195,-0.00011937268268608354,697956000000,
-0.07204069466005997,-0.009643150425709492,9.319933330018159e-05,697961000000,
-0.02828512008765329,0.017801091501813405,3.053148352625677e-05,697966000000,
-0.05664373023906474,-0.001249369855999192,-0.00013511655530355313,697971000000,
-0.07330536041558684,0.022661274074129035,0.00039136373451837184,697976000000,
-0.030593595086348714,-0.021336484075963367,0.00014231628094071245,697981000000,
-0.09013780760278414,0.03109910080710799,-5.874403166075222e-05,697986000000,
-0.09467061136117425,-0.010022386637107765,8.195999485844356e-05,697991000000,
-0.050064174575409126,-0.05942991769187076,3.5219087515756573e-05,697996000000,
-0.08299595925834177,-0.0015388438675056518,-0.00019142073742516963,698001000000,
-0.051399412920823624,0.026973248363309773,0.00018792095384903811,698006000000,
-0.05746549250357681,-0.00931673129066651,-4.452269357906813e-05,698012000000,
-0.05836556395423422,0.0034951051468695587,0.00031808876208198205,698017000000,
-0.047872431582036905,0.002999016951018149,0.0002854852962067227,698022000000,
-0.023457845242411766,-0.022286097409112096,-0.00011042409430938222,698027000000,
-0.05731011675644843,0.009249919692177578,2.413835508448016e-05,698033000000,
-0.0673814684956482,-0.013806152801679161,-0.000202944312045168,698038000000,
-0.05515546305814108,0.038210039836009756,0.000341393933697453,698043000000,
-0.029093334787056925,-0.0004544701964126249,-0.00017517769577821146,698048000000,
-0.04867297384026483,0.016064946868137305,-0.000406097727503798,698053000000,
-0.03792987576526815,0.020792932527871906,2.618648676501795e-06,698058000000,
-0.07373737900563007,-0.0005005190614735735,0.0001301003005358269,698063000000,
-0.03296986778338461,0.004947409631929604,-0.00014932480053566336,698069000000,
-0.034259947646229916,-0.011909208623771846,3.0899044824783015e-05,698074000000,
-0.04007097280999536,-0.0035108883409380297,-0.00011112357475152765,698079000000,
-0.0765842552268143,0.04010308237533049,-0.0001589833047790191,698084000000,
-0.08537032053159578,0.02588821738780012,8.512289063919068e-05,698089000000,
-0.016213715311386635,0.02173559537559952,-7.865184985298888e-05,698094000000,
-0.05839834241625758,0.004056673063256286,0.00035513726001783154,698099000000,
-0.06543279744477631,-0.014565707890043869,-0.00035863976164238984,698104000000,
-0.06639668821995769,-0.0058059512814841825,-0.00017309204774187877,698109000000,
-0.07681970663675387,0.02601834449099706,0.00036063953888900325,698114000000,
-0.05693640898127895,0.005465291255216367,5.188178336450874e-05,698119000000,
-0.08147180800883708,0.011641069356441047,-0.00026568599385880877,698124000000,
-0.046742930475673336,0.004094990559388832,-6.53206037298991e-05,698129000000,
-0.062313189189595435,-0.007726651885610903,3.8284247585378944e-05,698134000000,
-0.039020489588208855,-0.020516240678798793,4.049264682689477e-05,698139000000,
-0.08817085781803954,0.013502515709981013,0.00011833604855793895,698144000000,
-0.05421008361604688,0.024180531510646235,-0.00016870364493799833,698149000000,
-0.0826666158077322,0.020751109103910932,0.0001898948035444322,698154000000,
-0.025586108736825233,0.014567743834978887,-1.7413483501738467e-05,698161000000,
-0.029961556085954587,-0.01495164570072069,5.6558673578137904e-05,698166000000,
-0.03254064057402549,-0.0122789334945368,0.0004376821931650911,698171000000,
-0.05929741460056629,0.010655977346675175,0.00013807732840741645,698176000000,
-0.01621563586509519,0.00839252905986264,-7.340851515096999e-05,698181000000,
-0.05049283412910936,-0.0047941197166005926,-0.00010507254778068511,698186000000,
-0.06019890261700755,0.0009499825035609937,0.00030981032603983775,698191000000,
-0.05443586811699558,-0.026976898561479484,-5.4717140433994055e-05,698196000000,
-0.05620206221156794,-0.019569300298907848,-5.895004427665553e-05,698201000000,
-0.03867521800308524,0.028724268069559637,-8.086700198728806e-05,698206000000,
-0.06637093591685002,0.02347569272388386,0.00017134156584621741,698211000000,
-0.029263763654514392,0.007281969484743338,-0.00019760103979006485,698216000000,
-0.045528058082620185,0.029771459437618924,-0.00011324170492937686,698221000000,
-0.07186025989982475,0.03032530615261018,-2.8850383879376698e-05,698226000000,
-0.08975256738267409,0.01709553733226326,1.1312781874917352e-05,698231000000,
-0.058973725634416864,0.01687802714348382,-0.00021811468643796874,698236000000,
-0.04650736575480442,0.0042446518374516,-2.889615197566433e-06,698241000000,
-0.0740668621471996,-0.008589834779412131,6.874066992793192e-06,698246000000,
-0.07515347044807033,-0.0027624011296496116,0.0002050907603950724,698251000000,
-0.013546277268427387,-0.030580607853819292,-0.0002487585081150038,698257000000,
-0.05251888604020416,-0.017744957344939173,-0.0001614931343195393,698262000000,
-0.05927940288592899,-0.0061807063070402485,-0.00014536313050336207,698269000000,
-0.041756894170389525,-0.01721386799184825,-6.792807895933674e-05,698274000000,
-0.06958750678000027,0.035809097856681495,0.00020091757670914515,698279000000,
-0.073138731286493,-0.003694923010411977,6.563768391543067e-05,698285000000,
-0.057775091817038146,0.03819449645700937,-0.00011984594992842237,698290000000,
-0.05408977788809599,0.007642707397548972,6.321127823900776e-05,698295000000,
-0.06601670848534037,-0.005251651574776063,-8.020026339073038e-05,698300000000,
-0.07601436330490194,0.02030122078322142,-9.540873399715641e-05,698306000000,
-0.04927359056491056,0.005429365055939251,6.545477641749707e-05,698311000000,
-0.07421451949810072,-0.010938879081571273,0.00023904410984146304,698316000000,
-0.061571714557143414,0.010541902820217428,0.00011373961011980355,698321000000,
-0.09366974793121849,0.00977484530533472,-0.00010067881304787353,698326000000,
-0.06556769727294999,0.0003363447772783835,-0.00018035003731827964,698331000000,
-0.0507969122989307,0.03513298664238217,-8.209897242694653e-05,698336000000,
-0.06220235857207301,-0.008525537843955525,-0.00034581793398702455,698341000000,
-0.04773016795202181,0.0013149919090152862,1.533204659325491e-05,698346000000,
-0.046935332010204715,-0.006864041175688817,0.0005176283425575509,698351000000,
-0.07460933152426082,0.019860640464702504,-3.4322845747361736e-06,698356000000,
-0.03512397398230055,-0.02183633842077155,-1.3174227136485708e-05,698361000000,
-0.04600949965138843,0.017040545317213062,-0.0004596441263718648,698367000000,
-0.0540793163816755,-0.013480970536828585,0.0003119211690306239,698372000000,
-0.019363894852281842,0.03566854343737989,-0.00010814006135244323,698377000000,
-0.0507160593505812,0.00035172085828184786,0.00022423182151729728,698382000000,
-0.055235692819725506,-0.01409310351409223,0.0003718641516242242,698387000000,
-0.03460541942590295,0.025903869461451363,0.00010491119214479371,698392000000,
-0.06977473514278187,-0.023019098866429565,0.00011309853758145714,698397000000,
-0.054273911505320245,0.04245291754957629,-0.0003149873344066389,698402000000,
-0.0862288017881456,0.002492881731217124,6.292500468940678e-05,698407000000,
-0.06806915294124685,-0.006103220401531085,0.00014996006849037421,698412000000,
-0.03988528459570079,0.007297410543057306,0.00011105954031310671,698417000000,
-0.030026960619980076,-0.017422301351245235,0.00035241005181514847,698422000000,
-0.0573223945014975,-0.02857513065056829,-0.0001779622571843687,698427000000,
-0.05627871498032516,0.01841792444685951,6.898691999647441e-06,698432000000,
-0.0186111199000885,0.006728934962019577,-0.0003952692823011082,698437000000,
-0.040644559869244645,-0.008764552631124948,-5.9523915779410474e-05,698443000000,
-0.04496339883984211,-0.033378465911219714,5.83062062330649e-06,698448000000,
-0.04289609433038645,0.007755868511853092,9.697612420771135e-05,698453000000,
-0.08496886048228991,0.0018267168987476704,-0.0003549119485384769,698458000000,
-0.05622304787709229,0.009621620314263214,0.00025473001776730157,698463000000,
-0.07203831907205112,-0.0033118127123499086,-0.0001514054469674183,698468000000,
-0.031180420001856366,-0.007821055169115104,6.028033661923299e-05,698473000000,
-0.06693242937709112,0.0009246910590985196,8.55431682505209e-05,698478000000,
-0.05921466682465618,0.0021712767741071826,0.00016177468136879702,698483000000,
-0.04129533879789069,-0.02334518681648093,5.38924020671536e-05,698488000000,
-0.04320458413295646,-0.016312355269457585,-0.0002950719492773765,698493000000,
-0.07626375544933325,-0.030204888175339506,-4.5627609996729894e-05,698498000000,
-0.04774460601598903,0.001332726563825655,4.860374722138657e-05,698505000000,
-0.07086091352048095,0.0014464510626848296,0.0001266123848507575,698510000000,
-0.060932890512604136,-0.021538699698355025,3.8654707886436595e-05,698515000000,
-0.026121957523139595,0.02541154348254078,0.0003179945977145227,698520000000,
-0.03908633315238489,-0.006072151871885527,-0.0005245348589508175,698526000000,
-0.052110234935687144,0.0023754542400123008,-9.828877197989316e-05,698531000000,
-0.053577353313965057,-0.020970184034319574,-7.794421487797462e-05,698536000000,
-0.004393126116610073,-0.008683161034162846,-3.1068282896087884e-05,698542000000,
-0.04638794098010202,0.017435315147896837,0.0003292119496121338,698547000000,
-0.05090801956603379,0.027511853083688066,7.583673337133943e-05,698553000000,
-0.05672769299402692,0.01860326119861588,-0.00038828185073057114,698558000000,
-0.03874942742138905,-0.021551303758137887,5.531664257293901e-05,698563000000,
-0.0881290344177631,0.007794913210607613,-1.8089412262665028e-05,698568000000,
-0.07272008286869387,0.01845191552031058,-3.431215529530278e-05,698573000000,
-0.06621482946410338,0.010498513327272006,-0.00022434958086687488,698578000000,
-0.07630799923284515,0.03391063266364265,9.479589362184713e-06,698583000000,
-0.09065926372460478,0.009193200311841053,0.00016859241322241916,698588000000,
-0.05679242706836829,0.013682833824495045,7.949317812183576e-05,698594000000,
-0.07714122233787059,-0.01605224519338166,-0.00014276974176877867,698599000000,
-0.09831752453503034,-0.002940686094112506,0.0003844182631049055,698604000000,
-0.049861640833735135,0.01762639205142697,-0.0003524224421338255,698609000000,
-0.05905495254674308,-0.0059574194278578735,-0.00032589183134531586,698618000000,
-0.05308829013133158,0.012403472430885933,-0.00013168656018799137,698623000000,
-0.06318358994027187,-0.008132611290889508,0.00025604391634297683,698628000000,
-0.06130036693838906,0.003548897183840907,-0.0001652995787452191,698633000000,
-0.040081367388970224,0.03121413723296844,-1.54076132409304e-05,698638000000,
-0.018349718956825724,0.0129853434991963,-0.00012943650225157488,698644000000,
-0.050959563167073924,0.01708751785355719,-0.00011448018007711712,698650000000,
-0.07726945768047844,-0.019583397874927324,0.00015875725508189602,698655000000,
-0.09181172764482248,-0.007357381132496306,0.0001294707247557134,698660000000,
-0.09731155716159084,0.028504985640517157,-0.0003134501537047128,698665000000,
-0.031382286964622794,0.0011558270166258135,9.33846397867256e-05,698670000000,
-0.06785953892035845,0.011910128522675156,-9.436314708096595e-05,698675000000,
-0.0775594569072817,0.021740212137770148,8.718497845361498e-05,698680000000,
-0.03588641643458844,-0.014608065540323489,3.1502075433073176e-05,698685000000,
-0.07568758804482917,-0.007085922704048416,-1.8884101521288003e-05,698690000000,
-0.05101519492461729,0.022211086653134315,0.0002685672845307357,698695000000,
-0.07197025216791997,-0.015836323913009927,0.00020449115765492108,698700000000,
-0.023823402894059188,-0.024839644389485112,-0.00011684985987609783,698705000000,
-0.051354340409251825,0.02364990220934191,9.879294704622627e-05,698710000000,
-0.017008281782073212,0.006138865614469694,-0.00018494863231384217,698715000000,
-0.06302356252783783,-0.007843378979568535,0.0003665970242475813,698721000000,
-0.0408338194544279,0.0072958727022967886,0.00031717439286225725,698726000000,
-0.052228479348063184,0.01129246269521005,0.00017337197638026057,698731000000,
-0.044816221780519236,0.03122157203867125,0.0003412115460900347,698736000000,
-0.07788091793668726,-0.007145830072657468,-9.990783956232608e-05,698741000000,
-0.07208282940931024,-0.006713351889007844,0.0002884574222295299,698746000000,
-0.039594909565844896,-0.0072283453635638975,0.00017890360891135401,698751000000,
-0.06380351376255138,0.019546193469296588,0.00022239451726669703,698756000000,
-0.054296364841492785,0.0020592154294312055,-0.00018780667535543317,698761000000,
-0.038077205919184225,0.0035112233297071695,0.00017611782783492812,698766000000,
-0.04737344640743294,0.007040005928929754,6.63311396190632e-05,698771000000,
-0.05708296444622862,-0.00019471020636153795,-0.0003421045269397711,698776000000,
-0.08176722495029062,-0.0027610147775862775,3.1460861397762114e-05,698781000000,
-0.023817419273728695,-0.0004212049268749364,-7.397969719686025e-05,698786000000,
-0.08271409545272154,-0.024353401056302192,8.708501191598366e-05,698791000000,
-0.08606505715839159,0.03397692310050719,3.154740211895557e-05,698796000000,
-0.03424155395161191,-0.012097776461917308,0.0003381762721426871,698801000000,
-0.04097900689304604,-0.008838850848480075,5.20160882469296e-05,698806000000,
-0.06817381666434244,-0.00993208452078606,9.105345400992287e-05,698811000000,
-0.03993374817542944,0.001193302162254223,-9.388351468025982e-05,698816000000,
-0.07508925768974183,0.0018162641994190652,0.00012315499636057672,698821000000,
-0.04797545764062491,0.017103633355114098,2.6275455105671734e-05,698826000000,
-0.044665659617602785,0.000717060548165183,-8.74585785049516e-05,698831000000,
-0.07233555933312082,-0.019863881677195414,-6.722873167173163e-05,698836000000,
-0.07767035147258317,0.008601129176060408,-0.000280780718177996,698841000000,
-0.04873130132367718,0.014710209069412688,-4.428150526848869e-05,698846000000,
-0.0277121717104533,0.021367610143410435,-0.00016503758598946543,698851000000,
-0.08995415597357535,-0.007322966777672398,9.707101146461224e-05,698856000000,
-0.05357871408315568,-0.01732981185849455,-4.538694449952844e-05,698861000000,
-0.0780059893031904,0.002745235423208433,-1.2848340541524585e-05,698866000000,
-0.0477361606558282,-0.006046123045897687,0.00030319012927336225,698872000000,
-0.06984349275159724,0.0004796327208795438,-0.00032787869661355247,698877000000,
-0.05488547201336439,0.014209423298734078,-0.0002342557921361874,698883000000,
-0.030047036016269082,-0.0041987575625141525,-0.00026683177615571634,698892000000,
-0.07080623573611093,-0.007406326315229252,9.21377169321795e-05,698897000000,
-0.07605336992990758,-0.020743058499066807,8.856350087350348e-05,698902000000,
-0.0790746142698994,-0.009667341833540889,-0.00023520000046746648,698908000000,
-0.08645895944916357,-0.00383700208864416,0.00018910695333403785,698913000000,
-0.0688267321093806,-0.002623728547968696,4.286297493666238e-06,698919000000,
-0.0799127372988753,0.0005432141288362264,5.5352692692056426e-05,698924000000,
-0.07129691354021306,0.015017725739808765,3.0493870724660817e-05,698929000000,
-0.027247075181461262,0.029219166096132784,-2.0462135690425904e-05,698935000000,
-0.062468054273927764,0.0012064758383231301,0.00017369911759011444,698939000000,
-0.035721742970112116,-0.00873472559239394,-0.00015098273693254366,698944000000,
-0.053065243298226025,-0.0028464397196858717,-0.0003015633640368879,698949000000,
-0.05776598981730646,-0.006400765608140091,0.00021970256537352147,698954000000,
-0.07233606989817405,-0.0308717651048819,3.0327278241131964e-05,698959000000,
-0.03162383537625961,-0.005934510600553321,7.534766010103203e-05,698964000000,
-0.02990343046125633,-0.002976178203296528,0.00018398368152933514,698969000000,
-0.06833272150253229,0.01719410013168365,4.451546349162399e-05,698974000000,
-0.049977686369796596,-0.03797481811940749,0.00011312525872174331,698979000000,
-0.04318511699228496,-0.022339627029572595,-0.00023255245554793894,698984000000,
-0.046236530442799836,-0.026253792223928017,0.00022984369000701962,698989000000,
-0.05844760083601255,-0.026375871909146472,0.00046100671754643646,698994000000,
-0.061113660629599616,0.012392738940622027,0.00027986523991254585,698999000000,
-0.032599548405198735,-0.004227017556940439,-0.00010469203458394704,699004000000,
-0.06533104835976582,0.021732204130312783,8.828311290152535e-05,699009000000,
-0.08732088188876981,0.004374259203859409,-3.756850212676557e-05,699014000000,
-0.039449422422108596,-0.006168290697619508,-0.00032887771221835324,699020000000,
-0.027038804282790627,0.01270373919561749,-0.00018100850375695512,699027000000,
-0.026839442640397195,-0.016978235748315453,-0.0001297523113958601,699032000000,
-0.05209120427346763,0.005739822683747958,-2.326136926494115e-05,699038000000,
-0.031889864230560214,0.017292960955779025,0.00011774626838053867,699046000000,
-0.0584526230715145,0.012277431206235376,0.000190264321551063,699052000000,
-0.07373765859464168,-0.016477780794524638,-0.0002252454168779055,699057000000,
-0.04204657943522709,-0.007898008581928302,-5.7395961001728446e-05,699064000000,
-0.08688849932034762,-0.01913167925513827,8.104119066658491e-05,699069000000,
-0.05529677610571694,0.006003744522106765,-0.0004424027348539118,699075000000,
-0.03799118370633135,-0.03865789719696662,-0.00027184042370965295,699080000000,
-0.02967711619765106,0.0034561893234730454,0.00013581087225876453,699085000000,
-0.045651097586364,-0.02476844993837307,0.0002862075668462386,699090000000,
-0.08246157606715189,0.014948598044643102,-0.00016407226182298226,699096000000,
-0.05993632554586963,0.01727075033627952,0.00011108479442268342,699101000000,
-0.05390804564979131,-0.022515702355518693,-0.0001531958608563217,699106000000,
-0.05758868463016012,0.011202591907479608,-0.00026484854362969365,699111000000,
-0.04600637220118931,0.01965312642393862,-0.00010830835473249374,699116000000,
-0.06483854349282615,0.01499518776208907,0.000344263622439442,699121000000,
-0.05544871385458088,0.016963410209866008,-0.00032012162884261235,699127000000,
-0.07315574486239423,-0.006839407107206576,6.453153117106977e-05,699132000000,
-0.057506077456582254,0.005341914311630744,5.736008875883625e-05,699138000000,
-0.0450712815849065,-0.018361026538090977,5.2892791047170396e-05,699144000000,
-0.053449658459364294,0.02402176824966476,0.0003019540342930708,699155000000,
-0.06685688815159208,0.02047265825825477,-3.6412676180901035e-05,699161000000,
-0.054223453015147256,-0.014737936483241183,-4.854048928090751e-07,699166000000,
-0.04594724455976092,-0.0007141033141801765,-0.00019262069979744797,699171000000,
-0.05974713663405381,-0.0024438408019790588,7.614325435794845e-05,699176000000,
-0.05144421275482367,-0.0037570684130852163,9.996273573861607e-05,699181000000,
-0.0643907247413722,0.021533322431992262,6.935935848711742e-05,699190000000,
-0.06629878581072464,-0.019655488867621345,0.00020050642476886077,699195000000,
-0.04748283065556036,-0.01291889386519398,0.0002587918582789228,699200000000,
-0.09114400719467197,-0.0077157662057219965,0.00015700003991148053,699205000000,
-0.040744161877199744,0.0012539246344657844,-0.00027590246296323217,699210000000,
-0.06851114181206858,-0.004028649502044148,0.00017050544379056234,699215000000,
-0.05365915318027535,0.005994810887222477,-3.110593970375041e-05,699220000000,
-0.043554536800535754,0.005577143695773099,-8.33152904814088e-05,699225000000,
-0.048481683772215824,0.01220713192548553,-0.0004035820542723443,699230000000,
-0.014009702604339494,0.02737220303155854,-1.1404281345970145e-05,699236000000,
-0.07055558315655108,0.0036477094323210434,6.334930344862887e-05,699242000000,
-0.04603876063395037,-0.021044968122263773,8.083304302486473e-05,699247000000,
-0.05843327245666842,-0.03534235878300335,-0.0002599976206915602,699252000000,
-0.06162550365095087,0.00878896821297059,-4.946058361387171e-05,699258000000,
-0.05513479443460794,-0.004733537743728579,0.000451357743515198,699263000000,
-0.032298663655675734,-0.019660550816959464,0.00024909418372491207,699270000000,
-0.04123848712519802,-0.009960229654328943,0.0001871529541362249,699275000000,
-0.04102832523353971,-0.00119624623200106,-0.00018276563142444088,699280000000,
-0.07852756522908745,-0.03052059521461618,0.0001706416416963547,699285000000,
-0.07358708054524699,0.009406057933411613,3.202572470603315e-05,699290000000,
-0.07579064875854913,0.0037609259555377358,-0.00036301404866444334,699295000000,
-0.026744267572575746,-0.015902046438801574,0.0003924470147064722,699301000000,
-0.0536219172608444,-0.02780998879188667,-0.000406054931131099,699307000000,
-0.034663914344230946,-0.010503587491863487,0.00032470364637328023,699312000000,
-0.060672832545610386,-0.003677026363876066,-0.00032869886748328176,699317000000,
-0.013295701241949738,-0.0033811000487525677,0.00021518774970276882,699322000000,
-0.0749646696719966,0.02597266190223032,4.5736932800837864e-05,699327000000,
-0.058496320109337654,-0.012986764341844235,-0.00013409428454919046,699332000000,
-0.04393929108894135,0.02570511061096493,-0.00017206844645972414,699337000000,
-0.05314080189386492,0.006697192872501638,-0.0002820911315209397,699343000000,
-0.07015220573433556,0.004828734208943603,-0.00017454611518760368,699348000000,
-0.036713569756897824,0.02192663927301539,2.369917222297741e-05,699353000000,
-0.05196479546251031,-0.01565953399711044,0.00010435605717189778,699358000000,
-0.040133750091653736,-0.0009753830879279197,-0.00017356105504330482,699363000000,
-0.06136645262158934,-0.0003653251092959522,-2.9280344320386694e-05,699368000000,
-0.06706498820070382,0.011012675896606764,0.0003919195244475509,699373000000,
-0.04853906614497931,0.010222341931267566,9.483086724685512e-05,699378000000,
-0.04949831469026779,0.013706767142917417,0.0001234393488610371,699384000000,
-0.09022283420778589,0.00479413476715274,0.00024545695924738266,699389000000,
-0.058151971533395276,-0.01569770045998371,-0.00013186324124546604,699394000000,
-0.06767706130058454,0.0007201343691214665,0.0002875080261761872,699399000000,
-0.05104308026577494,0.011575695016998806,-4.584366293418849e-05,699404000000,
-0.07003138736012021,-0.003945915975685435,0.00042536832552946577,699409000000,
-0.03495223516332893,-0.013845910717869284,-0.0001774852471851495,699414000000,
-0.06693883635906087,0.010444552282371983,-2.6099108049518285e-05,699419000000,
-0.07087532101142684,-0.019423280510289548,3.054498936845441e-05,699424000000,
-0.0610040915529278,-0.004945932505260379,-0.00025518944351084005,699429000000,
-0.06808201881806253,0.019045475250034027,0.0004150865892108253,699435000000,
-0.04608936160679622,0.029748920999646742,4.9289295431819465e-05,699440000000,
-0.057740081816442974,0.03614995080110031,-6.993900097319216e-05,699445000000,
-0.042458675330521806,0.0017824845505026816,-0.00017587020788441856,699450000000,
-0.051198962721408454,0.0014327249567069554,-0.0001459213626088625,699455000000,
-0.040413919911021695,-0.013502253664763372,7.553006712818631e-05,699460000000,
-0.009076446900139992,0.011570639898833057,0.00017052473621795603,699466000000,
-0.053288094091748915,-0.0006519614866294396,-0.00021266802618295005,699471000000,
-0.034603567735938576,0.02522082746757888,-8.478717107552563e-07,699476000000,
0.0021760562287751334,-0.007758162888731197,-0.0001551092373700545,699481000000,
-0.07233315029904823,-0.008573261029043015,-0.0002353381320040585,699486000000,
-0.052757309073511595,0.0025559982277834035,3.6476155992891775e-05,699491000000,
-0.07634110068074894,-0.004385587427909413,0.00012906027153148782,699496000000,
-0.04345946953612088,-0.022118352942070228,0.0003125221512362005,699501000000,
-0.05133695926146599,0.012281136871833806,-0.00014914857208283538,699507000000,
-0.06046395447719729,0.00874548791998211,0.00015603066689233813,699512000000,
-0.01749874131928318,0.0032027774828429847,7.397017050193687e-05,699517000000,
-0.03260022174048874,-0.010765297412988976,0.00033522702904173625,699522000000,
-0.031856384413453745,-0.023386612473392,9.974618810750612e-05,699527000000,
-0.05552647200846482,0.003983157062051696,0.00022098571803387922,699532000000,
-0.03989365943748875,-0.018752282296787198,-8.92475267267744e-05,699537000000,
-0.06227641160589908,0.030986909261335353,-0.00022724753170825246,699542000000,
-0.048420308660379156,-0.0028237146189390733,-0.00019319604482901626,699547000000,
-0.08437138081960663,-0.02508295017392928,-0.000723846708014645,699552000000,
-0.04290108409644829,0.01085918433523911,1.3459821536354222e-05,699557000000,
-0.0570583712819832,0.00562832620969831,-1.565879206472455e-05,699562000000,
-0.06081459416511652,0.014957031166151097,9.950345306833101e-06,699567000000,
-0.054115107315457926,-0.009401437407874493,-4.68489913510735e-05,699572000000,
-0.05866142597999301,0.006813513938978408,-0.00010748250913135292,699577000000,
-0.05539991144031365,0.02341099545026398,0.0001668109618809884,699582000000,
-0.06408191423854656,0.02470443065871404,7.584279004050005e-06,699587000000,
-0.059663980872443845,-0.01640846324645953,-0.0003242817431286124,699592000000,
-0.07251622692916881,-0.0024732309563106707,0.00011908305276304975,699597000000,
-0.049704039000778785,-0.012467028620190206,-0.00013431903229673575,699602000000,
-0.023879709927223252,-0.02451227313250897,2.8793522547850605e-05,699607000000,
-0.05007863606186488,0.008010111300962242,6.315914441434537e-05,699612000000,
-0.02371062507028352,0.01766083505441769,-0.00018898543428888222,699617000000,
-0.04102446682840162,0.018667538216029757,2.680843612535638e-05,699622000000,
-0.05018183267024488,0.008282467393844677,-9.493161668538886e-05,699627000000,
-0.06421643605234505,-0.02451344782511058,-6.518506145290538e-05,699632000000,
-0.07831111807528109,-0.011956289601750311,-0.00016731629123451278,699637000000,
-0.03971216041328632,0.00878934023676536,-3.312902423544039e-06,699642000000,
-0.04834809498795618,0.009335732070598313,-3.565018283340767e-05,699647000000,
-0.03591868959740918,0.018555340793462594,0.00014680426517092604,699652000000,
-0.018229719249606424,-0.008620703359452775,0.00017454467334122786,699657000000,
-0.0828976024147052,-0.005461153664283331,-0.0002518665030255874,699662000000,
-0.06485696097148791,0.014042691101961227,-0.0002924805388513633,699667000000,
-0.053190064381406,-0.008926985199058591,0.00011492949731847976,699672000000,
-0.06604924504505486,-0.0032462804399034364,0.00025049831213142166,699677000000,
-0.07694821622467586,0.012790800833640644,-0.0001260729054745327,699682000000,
-0.06297519894647396,0.0024265774119355318,0.0002444624265037015,699687000000,
-0.047577803886561014,-0.01631734311908623,0.00035668849010035046,699692000000,
-0.0864031756128439,-0.013093630651009708,-5.1183084260687526e-05,699697000000,
-0.07584001119754405,0.0037721688164375254,-0.00016611206875671308,699702000000,
-0.06856545419960516,-0.005449731110224696,0.0005180810635006653,699707000000,
-0.04805708472357378,-0.011208262698559072,-7.933284585062188e-05,699712000000,
-0.03889583294464979,0.025175182999497177,6.456728827850758e-07,699720000000,
-0.02399604001810375,0.005391859624658839,3.5162396759466935e-05,699725000000,
-0.041108099301559495,-0.01944177545574009,0.0002527156362275148,699733000000,
-0.06042246763586788,-0.0028756859259641064,-0.0001879081884059664,699738000000,
-0.04100551584317434,0.033855602423707325,3.773264145393495e-05,699743000000,
-0.05867416185029874,0.029951696804033135,0.00031896575049694464,699748000000,
-0.05997797341631234,-0.02257669438773485,0.00015299857539285579,699756000000,
-0.044918800892212715,0.012339807326351501,5.288516761797817e-05,699761000000,
-0.08024036858993086,0.05274797980653045,0.0002857595544721422,699766000000,
-0.045156609378411816,-0.007078916423854677,-3.235026849228978e-05,699771000000,
-0.06257340098016789,-0.03532594634831144,0.00014702285013942066,699776000000,
-0.06237938662421561,-0.009838668581093023,0.00024522425782709756,699781000000,
-0.06283542393233497,0.0015124010137701049,4.3885562625309505e-05,699786000000,
-0.06042005853980502,-0.02192687993160868,5.162828416164878e-05,699791000000,
-0.062174068085289594,0.011262884489050887,-6.373447380747109e-05,699796000000,
-0.05292574942186922,0.007337236896564797,-5.0948697983070614e-05,699801000000,
-0.06418825252847833,-0.01600055508644481,-0.0003437032809559287,699806000000,
-0.05702227718302513,0.02844239219345663,0.00011308339641998274,699811000000,
-0.03024876979732087,-0.01392013029731142,-7.418145970940748e-06,699816000000,
-0.07736539933806898,-0.016874573455812107,-2.1926829565992312e-05,699821000000,
-0.05595841046194711,-0.03612460844424735,-4.703039777646668e-05,699826000000,
-0.09707063281699807,-0.012956316136885991,-6.752083585856418e-05,699831000000,
-0.07819914170088271,-0.022377346301862052,-0.0001758331527827609,699836000000,
-0.050905892750070354,-0.011140394928434667,-3.832303851077579e-05,699841000000,
-0.02487444039762711,-0.030678646599616638,-0.00031182234904551846,699846000000,
-0.05883027953561004,0.002709913107851433,-0.00024219229000232566,699851000000,
-0.02385848731983892,-0.014555308497814362,-0.00026856780263463307,699856000000,
-0.057085936394108514,0.01743092071435178,0.00024004510611208915,699861000000,
-0.08543869054564654,-0.031377596873180334,0.00029650340081375414,699866000000,
-0.09174829156324547,0.015550346255777623,-0.0002171802800276184,699871000000,
-0.049519697632964974,0.008114699360062956,0.00039238249085209853,699876000000,
-0.04732879609956124,-0.021992674333665516,0.00011886392112358115,699881000000,
-0.06948343907324121,-0.010089435554352988,9.929127601591518e-05,699886000000,
-0.048605496050370435,-0.006627607251239411,0.0003156584354937378,699891000000,
-0.10401278981326363,0.022179796986362632,-0.00011132577808387593,699896000000,
-0.07193848459003838,0.004338880589649369,0.00012477198429449482,699901000000,
-0.06029261288523669,0.0009225932157929359,-7.501623700373504e-05,699906000000,
-0.06537279407233454,-0.008949496402478148,-2.5121614655089012e-05,699911000000,
-0.0971299108514041,-0.017402009599441468,-0.00025116378841486507,699916000000,
-0.07831764792386046,0.0281299565102709,0.0004169789196298139,699921000000,
-0.0410812191534198,-0.011454888855224927,4.059131588746006e-05,699926000000,
-0.022324821328738212,-0.018680706905863785,7.394805087536385e-05,699931000000,
-0.051562841341061934,0.01702824790088165,-0.00012698614564387372,699943000000,
-0.03217860436512073,-0.033207116505534845,6.761736447267172e-05,699948000000,
-0.05913098511273651,0.021507365047689304,-0.00019876611404344487,699953000000,
-0.08128400257852425,0.010693041667533192,-0.0002757359057659785,699958000000,
-0.03923009921873897,-0.009638320564126574,-4.187977379752939e-05,699963000000,
-0.057388298529883926,-0.004322674109566329,-0.00021927505494587248,699968000000,
-0.07107745008708105,0.005673183248009062,0.00014266600571095813,699973000000,
-0.03172931170456361,-0.003223781719564143,8.007276380051643e-05,699978000000,
-0.06284446363568671,-0.01740072612026122,3.854689202359085e-05,699983000000,
-0.07651300516820866,0.010082776627090485,0.0002023377118259687,699988000000,
-0.06863759753358425,0.03625463793389737,-4.3768729304576594e-05,699993000000,
-0.0581508214658116,0.0038423366501178936,1.0432226076302796e-05,699999000000,
-0.03601091798275375,0.02877575009581152,-2.9578725992718478e-05,700004000000,
-0.07360248254920196,-0.026481746868149154,-0.00016643709958195403,700009000000,
-0.05355551909968221,0.005457012619286483,-9.347692326148873e-05,700014000000,
-0.10199367338586596,0.013164929296618697,-0.0002844545725569179,700019000000,
-0.0666096518190056,0.024198750127555166,-5.5531614845431845e-05,700024000000,
-0.06265652751456044,-0.015542848579292638,-0.0001540960124331277,700030000000,
-0.039961336317068816,0.003695976208049874,-0.0002653555125294152,700035000000,
-0.04999978930147695,-0.027286761094675933,-0.00016881609006886046,700040000000,
-0.07369959367217015,0.0035889456068645157,-0.00024245375937476089,700045000000,
-0.07169677686568618,6.863336005705233e-05,-7.698211669938194e-05,700050000000,
-0.06048061133764624,-0.011786666362624232,0.00011290169699210675,700055000000,
-0.06156410744443198,-0.014628686581097469,0.00010364781145118564,700060000000,
-0.03640219386543404,0.03356079751315909,-0.00011468555863249344,700065000000,
-0.06679215172863409,0.008939685291350518,-0.0002082448579197681,700070000000,
-0.04936849384944684,-0.0011601146329352943,-0.00031379040897080957,700076000000,
-0.04117013604324621,-0.017329464771265225,0.0003796414125968281,700081000000,
-0.07177896837372455,-0.008422754920149107,0.00019727747474398448,700086000000,
-0.06176697435113879,-0.0034706742618899203,0.0001888607985084947,700091000000,
-0.061461072894876,0.0006453004568598764,-0.00012970345859818235,700097000000,
-0.04890361427971136,0.02214889052309179,-0.00016286609377442132,700102000000,
-0.06819141029568278,-0.015421466375800625,8.369514229708541e-05,700107000000,
-0.07496788041956678,0.003935204510331703,0.0001324606315162414,700112000000,
-0.04247243121387026,0.02667814458940891,7.648511298543364e-05,700117000000,
-0.08405645790268965,-0.025438026409316392,6.941116137307402e-05,700122000000,
-0.06201442565540022,0.00816581808862165,-0.0001366574195894573,700127000000,
-0.0845697448057955,-0.05718404281133996,0.0004380499796368676,700132000000,
-0.0592050683878673,-0.0011156771095954528,-0.00011889301249023343,700137000000,
-0.07657518674807398,-0.006525576122804461,5.7476358589190225e-05,700142000000,
-0.07824795952571802,-0.0005344869136038456,6.09998527626687e-06,700147000000,
-0.06399594261209175,-0.01895150793712797,0.00011931647292049326,700152000000,
-0.059473032254547364,0.0070908560469436725,0.00028339387490936767,700157000000,
-0.057271682228012544,0.00044909304758387035,0.00016176016763202328,700162000000,
-0.07196108380275995,-0.015742765930636348,-0.00021926435210158185,700167000000,
-0.04031048059463509,-0.031999410126277994,-0.00010234115092873995,700172000000,
-0.04392042168734073,0.029010310467371524,0.0002207546491480454,700177000000,
-0.06465497083866435,0.026001967800901117,-9.244605014234705e-05,700182000000,
-0.03129200412931078,0.02747890307518612,-0.0003296633003287019,700187000000,
-0.10022569305332768,-0.017336681476953657,-0.00012931210177304008,700192000000,
-0.06795106352700245,-0.012211978080565422,9.564482134880739e-05,700197000000,
-0.05322650787063577,0.01372734679679618,5.930300657928675e-05,700202000000,
-0.06769761569424666,0.016173507885773812,-9.547981396793801e-05,700207000000,
-0.039251962442860444,-0.008740621661495857,-9.10441664756143e-05,700212000000,
-0.07458346717401428,0.009980392696495267,-0.00037863428721739996,700217000000,
-0.052780187033827385,-0.016444736546498234,-0.00020175684926386064,700222000000,
-0.04903528632677194,-0.012756221869937003,-0.00013048149792496154,700227000000,
-0.08212923972918451,-0.0056328834973036965,-0.00029611998235729936,700232000000,
-0.044123181616302194,0.0037783903322397877,3.906762014886334e-05,700237000000,
-0.0473247273688546,-0.009576524049403623,-0.00011632967249553394,700244000000,
-0.05294052844452112,-0.006596522408668844,0.00022046341116200948,700249000000,
-0.08147807932134962,-0.008183470933242563,0.00045495187628510317,700254000000,
-0.026659384164575393,-0.013076961306557418,0.0003237094887392675,700260000000,
-0.053948591543189,-0.00870725125392811,-0.00032785530103254204,700265000000,
-0.05884135246460418,0.01770400380169125,-0.0001757738855510972,700270000000,
-0.07023747736499465,-0.009553765458299269,0.00012099030556859342,700275000000,
-0.038397453063931705,0.02390794861553037,0.00010892597998409812,700280000000,
-0.06230633348311983,0.011237181931425665,-0.00016281479013463334,700286000000,
-0.02725500425034922,-0.01925124586511271,5.649461421524209e-05,700291000000,
-0.02024062220379748,0.012458981796325133,-0.0001904830378988135,700296000000,
-0.0767699864771707,-0.003956173163498277,-0.00023018309314836412,700301000000,
-0.0624982111862384,0.024994985238342877,-0.000228550468862771,700306000000,
-0.03841718109791426,0.031968961524736064,0.0004976120762349307,700311000000,
-0.07058070367656771,-0.015780983135177486,0.00045585778895630556,700316000000,
-0.04509067015151578,0.009611688590999794,0.00029048289670559357,700321000000,
-0.04300235463799698,0.015028968040454161,0.00011017713072445437,700326000000,
-0.05681046467137141,0.0032156748095943846,0.00011656676134163452,700331000000,
-0.0712388979871604,0.0058327015035477825,4.416261593904872e-05,700336000000,
-0.05398459469100927,0.006603488678332754,-2.444369794027733e-05,700341000000,
-0.0593775989794135,-0.030779208886475163,-7.572391515633782e-05,700346000000,
-0.03339284928941626,0.01435712314227724,9.168330733542517e-05,700351000000,
-0.054980242932466415,-0.005352866646732053,0.0001044481458179965,700356000000,
-0.04032908667179283,-0.005514840523023118,-8.74447923916523e-05,700361000000,
-0.05434196215097133,-0.017934270913525906,4.3745510196341055e-05,700367000000,
-0.05216941640982306,-0.006241786793492572,0.00019380667292890483,700372000000,
-0.039029644823961235,0.013660922700402388,0.0003890731552511856,700379000000,
-0.04483346421197141,0.007789770017787869,9.174360181596567e-05,700384000000,
-0.060786544906138176,0.009538787297437984,0.00014525388839454307,700390000000,
-0.06330997078708558,0.008765363188983782,7.60762317639846e-05,700395000000,
-0.07365235674206051,0.02128077754939283,2.5962768263045937e-05,700400000000,
-0.08530266028125992,-0.013246736391245876,-0.0002907233931016723,700405000000,
-0.06747088315055758,0.007031860974683508,5.5413185148634454e-05,700410000000,
-0.0388926548609482,0.00996371878993114,-0.0002842526319960786,700415000000,
-0.04199198825728839,0.010637327824225225,-6.905329617048235e-05,700420000000,
-0.06171250655388143,-0.0059665872128075,1.0954364910277383e-05,700426000000,
-0.08381514893267616,-0.004136098868463116,5.105849723796189e-05,700431000000,
-0.07513969565544976,0.018688869411559325,0.00023273294876831208,700439000000,
-0.06532438383979303,0.0022191941227937737,-6.341058546293546e-05,700444000000,
-0.06135377813180728,-0.01186673215478767,0.00012767429682542935,700449000000,
-0.06138485844534665,0.017223585283969865,0.00019513897387077962,700454000000,
-0.0638674534200771,-0.006935386233170315,0.0003411284143815759,700459000000,
-0.05127442423785831,-0.0017582949353736545,-0.00019301971478592002,700464000000,
-0.03191716259274354,0.00484910727221106,-8.280185749936804e-05,700470000000,
-0.09905790848800752,0.024216924558424648,5.742670209044633e-05,700475000000,
-0.032905684576945544,0.02794002326364233,-0.0001672244157176562,700480000000,
-0.04585891310550683,0.01204061738893557,0.00011389144517385673,700485000000,
-0.04281951608175089,0.01441884569397935,1.801148249205732e-05,700490000000,
-0.0532022268044357,-0.008655686679374806,0.00015204879929803765,700496000000,
-0.06606420264243777,0.008567505975443113,0.0005032682993719525,700501000000,
-0.04699648916483176,0.01227016203633388,-0.00011530908874999112,700506000000,
-0.030681433814001076,0.019112432195741446,0.0002043794454163285,700511000000,
-0.05587596147363756,-0.004393980657232003,0.00015362217094765906,700516000000,
-0.06566089276646417,-0.027462512610288432,-0.00010326856757422251,700521000000,
-0.06555619203696514,-0.002713997334669011,-2.1319202842888846e-06,700526000000,
-0.08309856640255711,-0.0003757752604562517,0.0003584191345201985,700531000000,
-0.058689392251086506,-0.00016649691644135013,8.020541102664072e-05,700536000000,
-0.075782618788488,-0.007605049452609272,-0.0005249201219038092,700541000000,
-0.05135491023451,-0.021836670183306667,0.00014333948907872276,700546000000,
-0.05152019484391537,-0.03729986972628759,0.00014639175967318504,700551000000,
-0.055992184064782305,0.01829655330782907,8.127632014977449e-05,700557000000,
-0.04728586911805321,-0.001710400810982763,0.0001795361789951031,700562000000,
-0.030504727367099502,0.002962434443579089,0.00018643543347923443,700567000000,
-0.08752263955857519,0.02993527784423538,-0.0001797849699046714,700572000000,
-0.05904494919068269,0.004767392338314273,0.0001343773511510822,700577000000,
-0.04751629563923996,0.012240444348151193,0.0002817564747754804,700582000000,
-0.033810884442443595,0.0004014622510094142,0.0004925669837926215,700587000000,
-0.037236882592315626,-0.014828830525479451,-9.226168986279938e-05,700592000000,
-0.0523914502783001,-0.002190794873434671,9.291018592374029e-05,700597000000,
-0.07406136128233069,0.03282103701494917,-1.356562226893836e-05,700602000000,
-0.056047708414421235,-0.023019011905527104,0.0002802991885647653,700608000000,
-0.05426363836390884,0.029491408900587414,-2.5512624159832955e-05,700613000000,
-0.0766137740750928,-0.01337264993101429,-5.5388628615177306e-05,700618000000,
-0.06106045022414925,-0.0063868728246894895,0.00016735184884755596,700623000000,
-0.05665739778547371,-0.020029520695847798,-0.000158038153164335,700628000000,
-0.04336491725144102,0.03786101728903383,-0.00011311631222838214,700633000000,
-0.052937649787412985,0.031175949127835997,0.0001514375668237372,700638000000,
-0.06290649924999636,0.009552971313759661,5.2205294752979374e-05,700643000000,
-0.06927032112642609,-0.03577690491937274,0.00011953709380710014,700648000000,
-0.06539128909801467,0.01148162425745537,0.00018815960869338335,700653000000,
-0.09042167928317896,-0.009153444384699061,-6.181117066190844e-05,700658000000,
-0.04418050613937547,-0.003217086925152574,-0.00023444635385318465,700663000000,
-0.06958388494458506,-0.006359500171084829,-3.447864368136232e-05,700669000000,
-0.049310130227841704,-0.019691397271932684,-4.5434420806716274e-05,700674000000,
-0.05952617684655033,0.009179025149256519,0.00013032797325940359,700679000000,
-0.05965068720816525,-0.012462936737898408,0.00010781525028946577,700684000000,
-0.05032464382762098,0.0031822387110190514,0.00014102906837103063,700689000000,
-0.046271931395685306,-0.017284014058248857,-0.0002759402516149545,700694000000,
-0.051818864210782654,0.0033421310343921193,5.5660142611177966e-05,700699000000,
-0.08069139350180025,0.01734417361647733,0.00027188640645904653,700704000000,
-0.039464076461157654,0.02514693549200567,0.00014986872128256926,700709000000,
-0.05736632005496635,0.0012404591465759727,6.468591210077766e-05,700714000000,
-0.04332107344264763,-0.0051334085263138604,-0.0003113146523685484,700719000000,
-0.020808196467007434,0.015725913680381634,-0.0002036551944383804,700725000000,
-0.06466893898555658,-0.0246528107429416,0.00018010780795223557,700731000000,
-0.03127039958345808,0.0022236904656588972,-7.998183449820327e-07,700736000000,
-0.058359023385159005,0.027895764942158643,-0.0009165963025982695,700741000000,
-0.062022304068588587,-0.012414946211752627,8.608647574846414e-05,700746000000,
-0.06535399838738651,-0.01970968673377608,-0.00016034933794145567,700757000000,
-0.028572221786011962,-0.023731824580387254,0.00018139716334734742,700762000000,
-0.05845794314246202,-0.027476007732629384,-0.00022555164394682235,700767000000,
-0.0607164378296349,0.021967975683102735,6.12960572486705e-05,700772000000,
-0.03763966022638364,0.020676952245466625,0.00014896501129315004,700777000000,
-0.07642797112183744,0.006420294666255061,-0.00036211255274186226,700782000000,
-0.059870479835544485,-0.011705919566439557,-0.00028118354556595304,700787000000,
-0.06923196847916714,0.04040021392062703,-0.00018875967298850478,700792000000,
-0.05600132070909929,0.006621314029646771,9.042361461924807e-05,700798000000,
-0.05644562216471127,-0.04684079048592959,-0.00036646070289158964,700803000000,
-0.052035570722553694,0.008797716689303391,7.893970148404714e-05,700808000000,
-0.02361663728694682,-0.013995464178015183,0.00014830167989163116,700813000000,
-0.07507650584054718,0.016374017829321567,2.4420674343407344e-05,700818000000,
-0.10198977677822788,-0.00922600442376539,4.483763201548176e-05,700823000000,
-0.06762453609368503,0.004618941967626244,0.00020027748334468733,700829000000,
-0.057369252808103635,0.014789865108862755,-0.0003021373391446394,700834000000,
-0.06863288414636043,-0.011699766089040794,-0.00017560172702220107,700839000000,
-0.044349871824840306,0.002031083732628263,-0.0002990243418009289,700844000000,
-0.05581053372702577,0.0484620367770865,-0.0002641451402201281,700849000000,
-0.05199605048766578,-0.004984089152239369,9.646959063615797e-06,700854000000,
-0.06658590840741435,-0.00948626771490488,-4.720650015882512e-05,700859000000,
-0.05849358197823757,-0.003158538675584687,-4.910067472773375e-05,700864000000,
-0.048449207159644375,0.0003201279674799843,0.0004874020069611311,700869000000,
-0.01914058051926925,-0.00147929265698549,-0.00011651894608981402,700874000000,
-0.054520882273776,-0.02517429009203772,-0.0005084883396977116,700879000000,
-0.06534137787955714,-0.009286858652291551,-0.0003089647883430388,700884000000,
-0.04526297973603942,0.018300148153324508,0.00012833108780651935,700889000000,
-0.01647091341811332,-0.01247953427535202,0.00020861901046439525,700894000000,
-0.060652431312398586,0.04803654026290554,-0.00018516682489650476,700899000000,
-0.07470597226619201,-0.011927204010678922,-0.00018025894494270132,700904000000,
-0.06900642398927018,0.02683520103491741,0.00010497490156182697,700909000000,
-0.03259924844874179,-0.0011557299004650054,-0.00014295762811829176,700914000000,
-0.06499273738055904,0.025532809094357227,0.00015818711642461356,700920000000,
-0.01399656754603891,0.020206951746984423,0.00012041388091127185,700925000000,
-0.05042407742354219,-0.013231816629389114,5.6890794553649975e-06,700930000000,
-0.04118419221781265,-0.025089373330027854,0.00022687563215046327,700936000000,
-0.06432925808113267,0.010532025130145194,7.18861435720616e-06,700941000000,
-0.04356808956944203,-0.0071884162625891574,-0.00024084317648800756,700946000000,
-0.031731148510526955,0.022329276101339612,-0.0001222375478444501,700955000000,
-0.04155959099723181,0.014817522549653279,4.3041159900799656e-05,700960000000,
-0.07133855717360872,0.03408087405006404,9.167084989550125e-05,700965000000,
-0.05106044450942768,0.00788334235925027,7.052582822146313e-05,700970000000,
-0.06150179286164526,-0.008485133885399983,0.00013605369520867795,700975000000,
-0.04418252050845389,-0.02157276565327227,-0.00042148290553031733,700980000000,
-0.059057986739691745,0.020449307133140967,-1.1106979698735211e-05,700985000000,
-0.056354529199371096,0.004950152268932055,0.0001562423300570947,700990000000,
-0.05164696219884441,0.0010837484461768652,-4.9783177972176365e-05,700995000000,
-0.006890975044219684,0.0035925667951290487,-0.0003851529142453327,701000000000,
-0.07859680178387121,0.003138437894260199,9.817243884742056e-05,701005000000,
-0.06518823529945622,-0.01519940863299828,-9.852885868621839e-05,701010000000,
-0.08124236328539584,-0.001634000286513697,-0.00037965329358436546,701015000000,
-0.0691069748461709,-0.013931852047895165,0.0002688444585496798,701020000000,
-0.07283355287671114,0.006851621741961861,-2.935605951688293e-05,701025000000,
-0.04530911257339178,0.02373671867390387,0.00019410745105380423,701030000000,
-0.08834710931072187,-0.015954658468183523,0.00012524317319523542,701035000000,
-0.07101531314056729,-0.009315532373976448,0.0005350783821758633,701040000000,
-0.07810438986999267,-0.004117627093464,-2.419179044620295e-05,701045000000,
-0.06279456223503103,0.016476919199723578,-4.831077704976226e-05,701050000000,
-0.06071097580999342,-0.0006400240041054237,-0.00010795899453423258,701055000000,
-0.030354420623355055,-0.012553175220312667,-0.000160992329261102,701060000000,
-0.07932811187918846,0.0027796285871888064,-8.195378451012142e-05,701065000000,
-0.0734520789382222,0.002179344984344026,-0.00016348016047742378,701070000000,
-0.04955904884936526,0.009137562273674257,-0.00015709307008593252,701075000000,
-0.03393967783954261,-0.035180241367271,2.1607166199162443e-05,701080000000,
-0.009790710564427638,-0.014648739087263465,-0.0001709472110660304,701086000000,
-0.08621928662951517,0.018302028635783275,-0.00019492440005527972,701091000000,
-0.05233063956002376,-0.029586683200237367,0.00013406649417389602,701096000000,
-0.07841739073512928,0.008585453425545156,0.0002322719017526207,701101000000,
-0.02949717940708818,0.014091264569094174,0.00035312053900599154,701106000000,
-0.08496439684252209,0.001112828263562057,0.00013973426335819257,701112000000,
-0.07037168151506831,-0.008935794579799023,-1.116003718524394e-05,701117000000,
-0.02648025890891593,0.028879592106067737,-7.987970625501053e-06,701122000000,
-0.07882796483426255,0.004482773408881232,-3.3713754686829686e-05,701127000000,
-0.036680373233383474,-0.007950677119931944,-0.00028829047482478677,701132000000,
-0.059139697163846906,-0.02033574604384786,-9.13853042902557e-05,701137000000,
-0.05110620572579943,-0.03169300296216976,0.00031441164356690133,701142000000,
-0.045924575126164435,0.015377291137059351,-3.914226605595008e-05,701147000000,
-0.06128771905219481,-0.0030397015925633887,0.00010676167400222133,701152000000,
-0.04718525201297647,0.02074649419670722,2.680177985382567e-05,701158000000,
-0.034256960270656056,0.0022960737637827758,0.0001811299960182219,701163000000,
-0.04487572719956867,-0.0030500653106780135,-0.00037220582840525197,701168000000,
-0.07444723997958658,-0.0052126433996739505,-3.298183618287833e-05,701174000000,
-0.057823579375695856,-0.026149664298242434,0.000186417689360044,701180000000,
-0.02264093870026032,0.029110552161174093,3.3525608364287795e-05,701185000000,
-0.07013298709105635,0.0214907804812604,-9.406157631227085e-05,701190000000,
-0.06823349441218723,-0.010323275628838228,-0.00012094767546482096,701195000000,
-0.0751973147233678,0.03542427013278924,-0.0001235820581620238,701201000000,
-0.06348439586368934,0.012720452626664637,-2.0916491372079193e-05,701206000000,
-0.03375819151567512,0.009072584263651732,4.627886567655565e-05,701211000000,
-0.06224974183796801,-0.030562594581221413,-0.00020626009407208646,701216000000,
-0.06493107706057785,-0.005887126447484551,-0.00010160391918777629,701221000000,
-0.059264166253440456,0.004146674602614011,-1.6918346829472832e-05,701226000000,
-0.052668004555944496,0.01910871514837382,-7.816753635025208e-05,701231000000,
-0.05142526558697446,-0.0165124425452379,4.0174869281308264e-05,701236000000,
-0.03862827462394933,0.012228994244272498,-0.00016627818880825883,701241000000,
-0.06252644569735186,0.0017794390988976234,-0.00012552455676355894,701246000000,
-0.06254430665244243,0.021401739942995227,0.0002040124751015859,701251000000,
-0.04363536303235341,-0.0119214812846035,-0.00012405505281084132,701256000000,
-0.07525016576081227,-0.011516698029895843,-6.836135548507229e-05,701261000000,
-0.06746580553370209,-0.015170625738095746,0.0002416407939830729,701267000000,
-0.05848755112699677,-0.012241815871636056,-0.00027102906072384137,701272000000,
-0.1004231236766448,-0.017474863549642148,-0.00015021365937251019,701277000000,
-0.089513929893934,-0.011116081378166068,0.0002236774650776942,701284000000,
-0.04830237872174887,-0.011589058174249626,-0.00010146425764165416,701290000000,
-0.053862956789126004,0.007213791929073473,-0.00031511402371773466,701297000000,
-0.07644380014478475,0.001827678286255477,-0.00023903288777025303,701304000000,
-0.05627411389750483,0.017088077694746382,-7.467179717866335e-05,701310000000,
-0.08260118630138495,-0.003201185853276036,-8.276045710885154e-05,701317000000,
-0.05347592815965525,-0.0024168404275759373,0.00010184820679520066,701323000000,
-0.08903603564165902,-0.011857070842702525,-0.00023665332782880027,701328000000,
-0.039134158953578885,0.022151007793988917,-7.910026779246774e-05,701333000000,
-0.03603158127470989,0.017970014166692645,-0.0003520761908465464,701338000000,
-0.05922437312642123,-0.004267060883668842,-1.0026521658460696e-05,701343000000,
-0.06874165448487131,-0.01272974451247101,0.00018618019180677536,701348000000,
-0.06918592032189683,0.012345708313074067,-0.0004153764259681447,701353000000,
-0.04940306330452506,-0.0073472895861278675,-0.0002467318488113588,701358000000,
-0.053246737306467305,0.0005278361138864635,-2.2284949091032713e-05,701363000000,
-0.03835206684051362,-0.028949441910384052,1.5544740326033847e-05,701369000000,
-0.03701060743157512,-0.006373349138571063,0.00019511094894519455,701380000000,
-0.05316690446231164,0.004648231593110928,-0.0001374530830382563,701385000000,
-0.052132007441774326,-0.017173072665740273,-0.0002609914653562667,701391000000,
-0.03408819435834422,-0.007436951985204595,0.00027638330447464607,701398000000,
-0.06867776235375192,0.026991396175346617,5.597457449176447e-05,701403000000,
-0.03960100371760957,-0.005421004933639975,-8.155406024162614e-05,701408000000,
-0.05381292888358991,-0.0003399668096708481,-1.8307805363242075e-05,701413000000,
-0.032093997287093626,0.0103981441244553,-0.00011143564545115985,701418000000,
-0.05355248978187735,0.019478858872831854,-0.00043232367237806363,701423000000,
-0.07289661933477767,-0.021171270647523846,-0.00010049230787964169,701428000000,
-0.0793844328478865,0.01611524119922072,4.809769642157118e-05,701433000000,
-0.061200575518001454,-0.008439566418140596,8.248926522978456e-05,701438000000,
-0.022163382458379295,-0.003861721398107887,9.520563772327909e-05,701443000000,
-0.0644114411093749,-0.004190190788975208,0.00010005206278740777,701448000000,
-0.0677307373576348,0.021163635448788437,-9.104945455725077e-05,701454000000,
-0.030781818192095297,0.01802640702233432,0.00017367319141575887,701459000000,
-0.05398590955267787,0.007701052548691724,-0.00011093739945102492,701464000000,
-0.04449306396894982,-0.00763108873255732,3.595065744888981e-05,701469000000,
-0.06348392245243527,0.0013156600435524127,-0.0002512527992578007,701474000000,
-0.02667267823408075,-0.0017779603928051659,-5.520949296673859e-07,701479000000,
-0.03598156653918919,0.0077609128522397215,-0.00011674088022458771,701484000000,
-0.04275711638875219,0.022090533671420002,-0.00020584553557618024,701489000000,
-0.08690440677324682,0.02189428882243779,-1.2060778176402605e-05,701494000000,
-0.04632704885486867,0.022100057154087884,-0.0004500891972707873,701499000000,
-0.08077023316625419,-0.016365651464746306,-0.00021605541940200018,701504000000,
-0.09387535774938219,0.024379973026557124,-4.6341781195697095e-05,701509000000,
-0.05405086427761273,-0.002505515106646889,0.00016799351035649878,701514000000,
-0.03478078616838344,0.023214775293881138,-0.00017223181697861097,701519000000,
-0.06379135529267455,-0.011586701629439198,-0.000228751523761478,701525000000,
-0.05293784149512733,0.006213074743747999,0.0001972887265915624,701530000000,
-0.07105763410125283,-0.012416628140308084,-4.15189527250054e-05,701535000000,
-0.03755564309993418,-0.006784400703869601,9.406276201957101e-05,701540000000,
-0.04718086995957263,-0.027870334187697625,0.00025414122074299744,701545000000,
-0.0630254294297728,0.02655333904162319,8.939149582165679e-05,701550000000,
-0.04335498676290847,-0.005121879714564609,0.0003259364307389114,701555000000,
-0.0762882194149333,-0.00573559689937752,-0.000161815050361761,701560000000,
-0.05736097374793154,-0.0012485077498765006,-1.281306571796802e-06,701565000000,
-0.056913798273678776,-0.020148103450385983,0.00019013732479085613,701570000000,
-0.05271205057493272,-0.03235450177084026,-0.0001110987175612478,701575000000,
-0.052169604721638854,0.010058352332591461,-0.00014937477208720013,701580000000,
-0.05207384456618393,0.022870575136193314,8.825932733682744e-05,701585000000,
-0.0629092789159044,0.019157407384163917,0.00018016671936075328,701590000000,
-0.06513835097957975,-0.007216428763480739,0.00014854976363465908,701595000000,
-0.04817111193977844,-0.016641958391748896,-8.778304567490648e-06,701600000000,
-0.06503428075786304,0.022996047325196847,-0.00010281500093425141,701605000000,
-0.06924995020521825,-0.013290421335932813,0.00016918164556301666,701610000000,
-0.06009276349185867,0.0214511258474116,-0.00026373605895591354,701615000000,
-0.0376337330728381,-0.02748055374675613,0.00021614495196962044,701620000000,
-0.053915088738082165,0.0021860697486188393,-6.156131485797712e-05,701625000000,
-0.074680765292577,-0.008706476094667615,-3.952458846404091e-05,701630000000,
-0.05104930837323687,0.01989467866161918,0.00030880854319219103,701635000000,
-0.04279132731332848,-0.005302785045928932,5.190143780673619e-05,701640000000,
-0.040790611640626744,-0.012572112699586219,0.0003072470365513587,701645000000,
-0.08669607148685211,-0.030640896766167235,3.41778810065211e-05,701650000000,
-0.07483298632491586,0.006496640886307111,0.00014641813274074214,701655000000,
-0.05777604293467807,-0.007681937699486224,0.000116945084549955,701660000000,
-0.06042156567465301,0.004660074680248809,5.296023819574955e-05,701665000000,
-0.048905834504513974,-0.014717671826934633,0.0003714729543551649,701671000000,
-0.0851479108174723,-0.010093269041557325,-0.00041200227856436305,701677000000,
-0.06321503619766293,0.0016454124158554236,-0.0002640930961863502,701682000000,
-0.09031296014757745,-0.008563465497166512,-7.276333148042129e-05,701688000000,
-0.054265796881246275,0.0182370066573416,-0.00012107611710987883,701696000000,
-0.07593935136727784,0.008769779305696408,-1.5224249808528244e-05,701701000000,
-0.0678906048053556,-0.0025327314132220454,0.0002968074788277909,701706000000,
-0.04214368386483344,-0.006590466214656363,-0.0002718470010815483,701714000000,
-0.07175264243843404,0.020144159446481943,0.0002948482029655838,701720000000,
-0.07215017425869716,0.008246460130634986,0.00024735491180193867,701725000000,
-0.04784632390523067,-0.005114224592633794,-7.152528513593348e-05,701730000000,
-0.06661068168424514,-0.02143579390109499,-7.138418725454883e-05,701735000000,
-0.046243488358658706,0.02649848009159729,-0.0001027923918580824,701740000000,
-0.05488743543427178,-0.0021474952198815766,-0.0001685764827956651,701745000000,
-0.038576168626876545,-0.012439223935920311,0.0002630270822944779,701750000000,
-0.037607978658822955,0.015870859205409822,-6.109891015758614e-05,701755000000,
-0.07222351101277132,0.007299366838751315,9.227031221915169e-05,701760000000,
-0.03780044080910282,-0.015147759052785235,5.473597252071926e-05,701766000000,
-0.09502194258820879,-0.025912769297170103,0.00013806468497405458,701771000000,
-0.07151734364472374,0.012536278156934517,-5.1761819507632844e-05,701776000000,
-0.08799680060685847,-0.010843505175762914,-0.00019371517654190695,701781000000,
-0.05313569331338315,-0.021047691561643794,-4.180682981420746e-05,701786000000,
-0.07813531788041873,-0.0034943746004961864,-0.00014943180476398814,701791000000,
-0.08614666761712364,-0.013468427950751424,7.273979295192008e-05,701797000000,
-0.004558103909173085,0.007612750207508903,-0.00015887044381927292,701802000000,
-0.03612935650796793,0.022613269567665458,-4.839561509202022e-05,701807000000,
-0.06214334291964856,-0.006963562928314165,-0.00020329020512967994,701812000000,
-0.06963592854518028,-0.02775201219280819,-8.416495300602684e-06,701817000000,
-0.06191844649985547,0.03213114075864366,-4.343040257617296e-05,701822000000,
-0.030564435970321244,-0.00039068315496657556,0.0002454612602123813,701827000000,
-0.03824032700010512,-0.014362331468587123,0.00016237109480930534,701832000000,
-0.044394398952783076,-0.022030921071661397,0.00011188656534469402,701837000000,
-0.07564845270554217,-0.01116826502731437,9.140491970354618e-07,701843000000,
-0.04982151783381341,-0.014192679164030959,-0.00024254954517902638,701848000000,
-0.0431635717455031,0.030699654337284346,-0.00010184115684864409,701853000000,
-0.06395705096842122,0.014284823565933866,-8.751836638216363e-05,701858000000,
-0.06325535840947753,-0.022483241542866756,-4.514332350952684e-05,701863000000,
-0.05573777056046956,-0.008652509599613159,-0.00012196135124552127,701868000000,
-0.036879884274757184,0.008334814930933118,0.0002181713493546907,701873000000,
-0.04118345562203195,0.010473867088632611,1.0772246189006463e-05,701878000000,
-0.05483010793638014,0.02403323934480552,0.00010016111715178222,701883000000,
-0.0872546170004183,-0.028028630420556776,-0.00010145565040617737,701888000000,
-0.04914031490904839,-0.008687471129009371,0.00013880227218027505,701893000000,
-0.052961918993562195,-0.030850407731348957,0.00026473144111991076,701898000000,
-0.04384073104176678,0.010870425624602343,0.0001569242079441078,701903000000,
-0.04397667648213385,-0.004256664084252,7.632408479494712e-05,701908000000,
-0.06298379049209167,0.014363201579533339,0.00026689286383681384,701913000000,
-0.1065249592240976,-0.023714188429761845,-0.00024023208959813604,701918000000,
-0.06545425473210408,-0.024089029720390502,-5.9474297143109834e-05,701923000000,
-0.08907103003888132,0.03777796547096632,4.748148861328761e-05,701928000000,
-0.04055121489633741,0.030957028859180537,-0.00015225101822946113,701933000000,
-0.042651706238388876,0.031160280882731917,0.00012386759391266923,701938000000,
-0.06796260557023082,0.04325012698016038,0.00020847409892430895,701943000000,
-0.07701750984443895,0.0087387812876973,-5.233680140386065e-05,701948000000,
-0.05721976342952141,-0.006101017062811244,0.00019866923573384169,701953000000,
-0.055309699248647905,-0.03429668878321502,-0.0003123467170775556,701958000000,
-0.04446164687362415,-0.02403486116681645,0.00048176911899770037,701963000000,
-0.03930876786299966,-0.0022836593654052342,0.0001359509907660784,701968000000,
-0.07044508173894289,-0.03921699285052183,0.00010454539703851457,701973000000,
-0.05987667061409697,0.013688589600705259,9.543664600747477e-05,701978000000,
-0.0760155230039437,-0.020475439239355162,-0.0002529616327635363,701983000000,
-0.06471014836657217,-0.0015716219624528978,0.00022631159769933944,701988000000,
-0.05445524219748091,0.011405555942844255,-0.00010302590029091105,701993000000,
-0.02867159339479956,0.013473474308837007,9.925948713168082e-05,701998000000,
-0.06868133554104337,-0.008876959401108877,8.551481149857302e-05,702003000000,
-0.08159965319124543,0.0034885941899651354,0.0002890341296079373,702008000000,
-0.081362937781692,0.01331248561141959,-0.0003841909984959259,702013000000,
-0.08094139751329654,0.00022058534945581176,1.6055624552730206e-05,702018000000,
-0.06754788034942757,0.005019193864399744,0.00012406230320951973,702023000000,
-0.08125148432019032,-0.01638751563656066,-2.2308897636728316e-06,702028000000,
-0.030664545916002352,-0.01936740489733679,-0.00028795691310267736,702033000000,
-0.08366543731803569,0.015736516202278332,0.0002788287866658111,702038000000,
-0.01615537490092263,0.036246639607258616,0.00039506256604309185,702043000000,
-0.05290088975330668,0.01618819574849263,-0.00011737692902835966,702048000000,
-0.06720538083563762,-0.013676759785364414,-0.0002512643756258925,702053000000,
-0.040429294293176564,-0.019272735151963056,0.00011458080738556634,702058000000,
-0.04946567456521578,-0.00772701493165925,-0.0002103752188155567,702063000000,
-0.04923541449842541,-0.02613499073205081,4.985051579898768e-05,702068000000,
-0.044179740768679275,0.01240577035560421,-0.0002991899514526399,702073000000,
-0.03575341947929976,-0.009398745731603281,8.732367808390367e-05,702078000000,
-0.054892535431612086,-0.018898184348191897,0.00018926075143797889,702083000000,
-0.042603388718494006,-0.008634588968176184,0.0002921192405380027,702088000000,
-0.07618641091166463,-0.016580903867337914,-0.00013551333823772524,702093000000,
-0.07990503105615493,0.008716633963969156,0.0002939091835422482,702098000000,
-0.0232261375298538,0.010651922126109105,-0.000289927890964406,702103000000,
-0.07759736173677088,-0.01161069449806418,-6.477288783905402e-05,702109000000,
-0.03192816099240854,0.005307482562774349,0.00014404923457637242,702114000000,
-0.06944208825886106,0.021384566751378134,1.4257289607066992e-05,702119000000,
-0.05563862641326726,-0.009288241384202159,-0.0002571229776041744,702124000000,
-0.020103370047937476,-0.0040719437074484156,0.0002437536660205437,702130000000,
-0.030478058340019657,0.020050841896892563,-0.00016196849743306055,702135000000,
-0.02161143194333021,0.0049139397586711216,-0.00015703230271865132,702140000000,
-0.08504297377228326,-0.006540321012310953,-4.731453996680704e-05,702145000000,
-0.06344679989753162,-0.01667941987999163,-9.744577239016286e-05,702150000000,
-0.057295013106161,0.013635337836503414,7.232677189352802e-05,702155000000,
-0.06767529275362523,-0.0295408277636965,0.0001559355660020343,702160000000,
-0.055627799093170914,-0.005973963118683817,-0.00010973710439972066,702165000000,
-0.044968042124712684,0.00804296381812227,-5.4105065317009245e-05,702170000000,
-0.0567904831869491,-0.020275521120209118,-0.0002492953882964395,702175000000,
-0.05986500511243981,0.005409170265519591,0.00012399951618632322,702180000000,
-0.056687693694712875,-0.015123838678149159,-6.016281717616978e-05,702185000000,
-0.04531397395953446,0.016790365037307044,-0.00016624844468232064,702190000000,
-0.05776205266630022,-0.017768869321336506,0.00012591473978171267,702195000000,
-0.049212054996245445,0.013768503945180324,-4.727913327656506e-05,702200000000,
-0.1062055452766617,-0.0003298204044048633,1.5627233313060337e-05,702205000000,
-0.06509388270701912,-0.012548987056701988,-0.00023144536621461757,702210000000,
-0.037651115935755826,-0.005655846204268871,0.0003137992710429723,702215000000,
-0.08280687769051798,-0.006800474063793388,-5.521959263853878e-05,702220000000,
-0.07316295625113209,0.00669506631792843,0.00011493125775113127,702225000000,
-0.0679790244264926,0.008728815823234726,-0.00042955674104507274,702230000000,
-0.06072897989744533,0.0024065824214472642,3.903502232073774e-05,702236000000,
-0.06831838886308556,-0.01823560487830319,-6.974218233276173e-05,702241000000,
-0.06754069893311017,-0.02097307391900044,0.000128029904950356,702246000000,
-0.08139503698372799,0.001884443619090773,1.4381953196082696e-05,702251000000,
-0.0670449406076454,-0.02680405374941989,0.0003469261857771934,702256000000,
-0.03850720154371646,0.014016059225351169,0.0004470652562388944,702261000000,
-0.08157383231524926,-0.017665672043580972,-9.492340879441448e-05,702266000000,
-0.0391852192720517,0.0322293995012161,-2.3833901287203314e-05,702271000000,
-0.043299327064416145,0.004806274379584474,-0.0005342156804619085,702276000000,
-0.05100207973892389,-0.00778215087694006,-9.784739790545891e-05,702281000000,
-0.04675202273959509,-0.014556427101448936,-0.0004016526047676208,702286000000,
-0.07856230892887996,0.017737093875522483,0.0001308979062222983,702291000000,
-0.03191618165314118,0.01032466337121693,3.7306049159915706e-05,702296000000,
-0.07609185898239938,-0.013974906750483459,-0.00022927974891821202,702301000000,
-0.049227773267386275,0.017200922031410257,8.857330144425776e-05,702306000000,
-0.0404427654239197,-0.031271988101537335,0.00010976521795905416,702311000000,
-0.07029820518603898,-0.015105919628782008,4.174815026253766e-05,702316000000,
-0.05353321442841159,0.02505553301536805,0.00015102868874496703,702321000000,
-0.05998753023907436,-0.009259669487889505,1.0132656511317168e-05,702326000000,
-0.07208151157017119,0.012479507902075878,0.00011402074721287271,702331000000,
-0.0704925735193161,0.003212874791570275,0.000215706424624429,702336000000,
-0.03953777885605858,0.02805366537247612,-0.0005923927831120437,702341000000,
-0.05056255508493381,0.013115769558707682,-0.00032926428018602305,702346000000,
-0.0812285649410266,0.009501058312472721,-0.0003599085902986047,702351000000,
-0.039740974250667256,0.008026842443647556,9.65721899703581e-05,702356000000,
-0.05184745771206185,0.014970607083786423,-0.00024017366871136216,702361000000,
-0.05086400046137991,-0.011776460716932068,0.0002117797277790164,702366000000,
-0.0640383167585298,0.011159199593835973,-0.00020826951195279656,702371000000,
-0.07707918524785981,-0.018698571852968526,0.00013782777431713234,702376000000,
-0.036112894154546264,-0.01413383588205787,0.00019638814017736923,702381000000,
-0.09531099931958507,-0.023456931567913047,0.00029205075221222526,702386000000,
-0.07386350206144972,-0.011386653099007134,0.000203711866033821,702391000000,
-0.05103567890949748,-0.013045493487242548,0.0001071949320901923,702396000000,
-0.06168087590471699,0.009765985968750364,0.00010295071060957574,702401000000,
-0.033967136150242244,-0.0021952676210348016,0.00017383949902021966,702406000000,
-0.0520876434061383,-0.013911168142206387,-2.2729774559228122e-05,702411000000,
-0.05478792249059935,0.016873298941141663,-0.00026023424375944224,702416000000,
-0.07382215725849273,-0.007519890821465359,0.0003496315399782566,702421000000,
-0.07514325054802881,0.0027622054603696515,4.274538356297073e-05,702427000000,
-0.05185545844229508,-0.04178808719440657,-8.659076224184172e-07,702432000000,
-0.0617181145196546,0.022482357134507074,0.0001496674318759572,702437000000,
-0.051073910733815515,-0.003933566520819616,7.655825851021205e-05,702442000000,
-0.05218647597394443,-0.01833002245585651,0.0002129862170217232,702447000000,
-0.0632164258098312,0.004894173082022031,-0.0004208831835722678,702452000000,
-0.0794905797677093,0.012505996079015992,-0.00025987593248935696,702457000000,
-0.05495006109255849,0.016185577598418027,0.00015705497638157052,702462000000,
-0.06411397454525412,0.011786189170348802,-0.00015106268479589543,702467000000,
-0.05458351390338509,0.01577049939080377,-3.4586491452616027e-05,702472000000,
-0.027735922383015574,-0.0023968841608656396,-0.00011665450223557252,702477000000,
-0.042262180934843664,0.0016764453763160924,0.00017296077428861976,702482000000,
-0.06558919427418276,0.004503701404409529,0.00020587539404616988,702487000000,
-0.05060296509889764,-0.0036372140346531334,-5.582816564100929e-05,702492000000,
-0.0804080630831869,-0.026896191129524263,6.378779215763901e-05,702497000000,
-0.04257540469417301,0.013881701368072109,-1.3810712086840277e-05,702502000000,
-0.0668914269947949,0.003272361824471154,0.0003733379586443679,702507000000,
-0.0818271380090142,-0.006426315516858681,-7.337339541742792e-05,702512000000,
-0.0671760768194357,-0.008502680602358632,8.11772745159791e-05,702517000000,
-0.0745864741409106,-0.002351053268459049,-0.0004911094576839466,702522000000,
-0.061838800654751225,0.0175774274059349,8.592976998711062e-05,702527000000,
-0.06491238205410102,0.02067573529856388,-0.0006211721561547123,702532000000,
-0.09513522874523858,0.026624315394396327,9.169778996716041e-05,702537000000,
-0.07534823480602834,-0.01861684936977263,0.00035500368739273345,702542000000,
-0.046605966459169264,-0.024247803578461704,0.00022815085424097794,702547000000,
-0.09485507969710295,-0.0030052017033091517,8.805820164008797e-05,702552000000,
-0.07766354320806843,-0.030148784153113853,-3.258144627828007e-06,702557000000,
-0.07563508668835885,-0.0005937541386347746,5.738431847061373e-05,702562000000,
-0.03258730703750294,-0.0068269745162501776,0.00012502807163694945,702567000000,
-0.06255755032902081,-0.007572544325518477,0.0002887395935900653,702572000000,
-0.04356112931540337,-0.0018309503556327386,5.615250220810407e-05,702577000000,
-0.06053982071719998,0.004719651020016885,-4.303114075719796e-05,702582000000,
-0.05267736090666507,0.018456148522226264,0.00022776234583886534,702587000000,
-0.06755766158088726,-0.007785637277367888,0.00023066114384741473,702592000000,
-0.07207667435845343,0.008341086236084112,0.00040044333793174585,702597000000,
-0.04704135892886782,0.001953602234471407,6.078847619725326e-05,702602000000,
-0.03703278908622125,-0.014675075062070017,0.00013988665117089643,702607000000,
-0.07192338947618604,-0.0026071101097657383,-5.64732920194074e-05,702612000000,
-0.048361309192878885,-0.028472669064962895,-3.5981890006331203e-06,702617000000,
-0.07266066300984259,-0.032180110235147594,-0.00022680112690479939,702622000000,
-0.07959513601785574,-0.007286417150911814,7.709760861517572e-05,702627000000,
-0.049307870207315196,0.009069630203959513,0.00017476641719082017,702633000000,
-0.052621007458720045,0.01654196135359903,-3.9274596371795694e-05,702638000000,
-0.0554052777232971,-0.012668360200884975,6.33292392055972e-05,702645000000,
-0.07440598055095514,0.013588214466958645,-0.00016414011849155355,702650000000,
-0.039661537430070726,-0.03515777076972031,0.00020915261284869187,702655000000,
-0.056820093897565684,-0.012158807845864036,-0.00014025119108807333,702660000000,
-0.05837767076087464,0.02130674680278637,-0.00019436723198091164,702665000000,
-0.08732690548248628,0.005588049423751965,-0.00011163994671079214,702670000000,
-0.08316612303825137,0.02624677826115817,-0.0002671743850146334,702675000000,
-0.05552746036212952,0.006966037437571106,0.0003607530241796814,702680000000,
-0.04656364219170436,-0.006995278224140261,-8.157302848204529e-06,702685000000,
-0.03792533363461531,-0.016393212758583853,0.00010950311151913977,702690000000,
-0.043370958283515317,0.018354118761591053,-0.000266326578409327,702695000000,
-0.046056212752222,0.01416538760057814,1.8215684055837207e-05,702700000000,
-0.05378372933715763,0.04481327266707763,3.502672189666943e-05,702705000000,
-0.038116524085854545,-0.016340137873989587,-0.000181989517411666,702710000000,
-0.051918448457271976,0.013592031252616559,4.418010346768505e-06,702715000000,
-0.03684654860197219,0.00032610044170649057,-6.566479671038137e-05,702720000000,
-0.053855381138268904,0.004195162115710914,-1.588727759691644e-05,702725000000,
-0.041522484982656906,0.026663557816463686,0.00020457867700881649,702730000000,
-0.06036333474960096,0.027882494769318276,-6.048348709440355e-05,702735000000,
-0.042553937964020065,0.017155290863394367,-0.00018394477760303398,702740000000,
-0.061358026683614224,-0.007359400792863843,-2.0606642475637987e-06,702745000000,
-0.05059151198217863,-0.004342486460453734,9.329419490867819e-05,702750000000,
-0.031994404736366375,0.006798480464210923,-2.3930016649580162e-05,702755000000,
-0.03430406318772429,0.021664304988453908,0.00010385005948027786,702760000000,
-0.03566703052228126,-0.024278375830369226,-4.009145071325893e-05,702765000000,
-0.05129988371370997,-0.0035698186171008875,0.00015323503640770356,702771000000,
-0.03710064990066271,0.011958281379818175,-0.0003378739715935307,702776000000,
-0.04794607549151246,0.00790708373275987,4.6014955980928096e-05,702781000000,
-0.05909826699046861,0.03579645239556257,9.300210632617227e-05,702786000000,
-0.04034275201370338,0.0019547158552905845,-0.00011964431415190604,702791000000,
-0.0662208252836216,0.006648252433054243,-0.00018068455118343003,702796000000,
-0.052647502285590134,-0.003975056793883774,-0.000362597420972789,702801000000,
-0.06022314110230932,0.01582701311361699,-2.3914796693856843e-05,702806000000,
