acc_x, acc_y, angular_z, stamp, 
0.009553730487823486,0.000276029109954834,0.001246712957533916,1759520228041265069,
-0.023093104362487793,-0.02690112590789795,-0.0004661481636081288,1759520228073738177,
-0.021180331707000732,-0.017842590808868408,0.0013931250783574512,1759520228101057112,
0.01636594533920288,0.012614071369171143,0.000550766437394579,1759520228130873681,
0.030565321445465088,-0.005618572235107422,4.008110253323015e-06,1759520228160853115,
0.015581786632537842,-0.01670438051223755,3.959944954355427e-06,1759520228191180674,
0.015125155448913574,-0.007643282413482666,4.037475062556677e-06,1759520228220905207,
-0.026674091815948486,0.021075546741485596,3.992584709571039e-06,1759520228250942387,
0.017810940742492676,0.004723787307739258,3.953854123539589e-06,1759520228281255661,
0.024577856063842773,-0.013250589370727539,3.737477150149862e-06,1759520228313310089,
0.020339548587799072,0.002961397171020508,2.164589092668002e-06,1759520228341082251,
-0.012744426727294922,-0.0043547749519348145,1.0110500463190968e-06,1759520228370995642,
-0.01104283332824707,0.010020792484283447,1.0055032364749467e-06,1759520228401020972,
0.03360801935195923,0.020785868167877197,1.004890895603748e-06,1759520228431036078,
0.029519617557525635,-0.020602107048034668,1.002087564094492e-06,1759520228461096695,
-0.0030817389488220215,-0.004242002964019775,9.411525067670136e-09,1759520228490115493,
-0.021023690700531006,-0.007539212703704834,9.519281760197212e-07,1759520228521669688,
0.018120884895324707,0.022979736328125,9.278610444642087e-07,1759520228554019268,
-0.02865278720855713,-0.009405195713043213,1.095610819788773e-06,1759520228581394346,
0.009056627750396729,0.0014709830284118652,1.0423412619952487e-06,1759520228610144928,
0.008534073829650879,0.003125786781311035,9.559600389621266e-07,1759520228641478244,
0.006380259990692139,-0.009847283363342285,1.0020202635926863e-06,1759520228731354453,
-0.004715383052825928,-0.009883880615234375,9.953022801955965e-07,1759520228761395425,
-0.021198034286499023,-0.011672437191009521,9.195233484591374e-07,1759520228793898182,
-0.01841837167739868,0.012203633785247803,1.0142669571656926e-06,1759520228823317410,
0.02811485528945923,-0.0001189112663269043,-0.0013122967293030363,1759520228851341377,
0.05601257085800171,0.02361464500427246,0.0030290171645254165,1759520228881340845,
0.9100896716117859,0.3808087110519409,0.13037017569278028,1759520228911381076,
1.318358063697815,0.23292815685272217,0.2473261577751397,1759520228941460636,
0.6122494339942932,-0.20295506715774536,0.2640050761125854,1759520228971437707,
0.44032609462738037,-0.22085201740264893,0.3070254248788581,1759520229001495204,
0.5503787398338318,0.5967147350311279,0.34635408584532645,1759520229034221227,
0.8289264440536499,0.2543872594833374,0.42235562066635773,1759520229063127525,
0.33520352840423584,0.022202670574188232,0.5163410026399852,1759520229091452708,
0.8157361745834351,0.08603906631469727,0.5760254568878513,1759520229121459575,
0.2702926993370056,0.32081133127212524,0.6155981680825595,1759520229150645508,
0.3931315541267395,0.29635465145111084,0.6380194266675625,1759520229181520241,
0.7353054881095886,-0.20022982358932495,0.7492379915311407,1759520229211555661,
-0.07537353038787842,0.4140856862068176,0.770815039193669,1759520229241606225,
0.6254186034202576,0.5375131964683533,0.8307847763659931,1759520229272292855,
0.25013917684555054,0.1544533371925354,0.8722239367732096,1759520229304502908,
0.5388393402099609,-0.03782856464385986,1.0887776583189075,1759520229331660332,
0.14142441749572754,0.0038063526153564453,0.937987100130444,1759520229361655386,
-0.2759627103805542,0.7177839279174805,0.9531775076828707,1759520229391702744,
-0.038403868675231934,0.5224006772041321,0.9795415657087826,1759520229421685179,
-0.48507630825042725,0.4590420126914978,0.9845807735848442,1759520229451687528,
0.14370989799499512,0.3648398518562317,0.9999248382975593,1759520229481856768,
-0.10188716650009155,0.32396143674850464,0.9579894739007139,1759520229513281576,
-0.11931008100509644,0.3486931324005127,0.9663856525094991,1759520229544847240,
-0.023703932762145996,0.49769532680511475,1.1224428848424168,1759520229571837170,
-0.43441230058670044,0.23294222354888916,0.9948575825996521,1759520229601770916,
0.4354482889175415,0.22845536470413208,0.9971685214818451,1759520229631849296,
-0.2321242094039917,-0.09429675340652466,0.9809976457337255,1759520229661842977,
0.42632174491882324,0.7524556517601013,0.9715618847386994,1759520229691862004,
0.2161046266555786,0.29593712091445923,0.988693094514188,1759520229721924847,
-0.25314611196517944,0.17234808206558228,0.9333699016312382,1759520229753319097,
-0.04551291465759277,-0.049272358417510986,0.9114022675278224,1759520229785584345,
-0.20568150281906128,-0.11691838502883911,1.1393146626544763,1759520229812089737,
0.17768508195877075,0.5905326008796692,0.9671185825440588,1759520229842030648,
-0.02285557985305786,0.09030097723007202,0.9730912228925815,1759520229872037508,
-0.1954408884048462,0.2828209400177002,0.9699847987281629,1759520229902035571,
0.23216038942337036,0.7451202869415283,0.9699807842179013,1759520229932028775,
0.22160470485687256,0.584553062915802,0.9667393559900892,1759520229962051774,
-0.0012208223342895508,0.1768721342086792,0.8970646516990297,1759520229993765910,
0.29876208305358887,0.4752146005630493,0.9038592532785078,1759520230025346983,
-0.28366899490356445,-0.1144721508026123,1.0645390756418542,1759520230052209312,
0.027266263961791992,0.6194697022438049,0.9876717854789685,1759520230081190741,
-0.158816397190094,0.2609151601791382,0.96151364042012,1759520230111198968,
0.13048624992370605,0.12193995714187622,0.9443145080614224,1759520230142217717,
-0.05981487035751343,0.37302273511886597,0.9543577364415682,1759520230172422558,
0.184664785861969,0.09330606460571289,0.9402064699730015,1759520230202293792,
-0.2205154299736023,0.4227715730667114,0.9089987064308864,1759520230233584855,
-0.40016674995422363,0.6923177242279053,0.9042833790636893,1759520230265350375,
0.2107713222503662,-0.2093990445137024,1.0974924109706659,1759520230292331641,
-0.33548784255981445,0.15666139125823975,0.9740605250156635,1759520230322325436,
-0.18023234605789185,0.3500908613204956,0.9669640943738077,1759520230352328553,
-0.178144633769989,0.4850790500640869,0.9656559012296936,1759520230382351451,
-0.15688598155975342,0.742021918296814,0.9518781741763903,1759520230412366982,
0.22182822227478027,-0.05798792839050293,0.9781694571251595,1759520230442452194,
-0.17018014192581177,0.08856832981109619,0.9349417500177656,1759520230473377347,
-0.2989662289619446,0.22191745042800903,0.8563555646820448,1759520230506069477,
0.37824732065200806,0.3174489736557007,1.0590494654499498,1759520230532465681,
-0.49718570709228516,0.4372296929359436,0.9413845067927629,1759520230562459894,
1.079390525817871,0.31541842222213745,0.9538879610992653,1759520230592468851,
-0.20118677616119385,-0.2456766963005066,0.9405697326652163,1759520230622503113,
-0.04419070482254028,0.4217373728752136,0.9472526502920348,1759520230652525583,
0.31451690196990967,0.33701395988464355,0.9446074759252485,1759520230682615202,
-0.7997995018959045,-0.29699641466140747,0.907524104755102,1759520230713438913,
0.4367685317993164,0.39174240827560425,0.8596010992872543,1759520230745360766,
0.24078106880187988,0.10755395889282227,1.0334291899619212,1759520230772674961,
0.005594372749328613,0.978764533996582,0.9418169036795652,1759520230802621270,
0.3109622597694397,0.1107032299041748,0.9197985756418263,1759520230832642687,
-0.24115008115768433,0.03631913661956787,0.9435884926654282,1759520230862679825,
0.05341601371765137,0.30977219343185425,0.9914852550713815,1759520230892700327,
0.1357966661453247,0.766785204410553,0.9901351889239777,1759520230921703061,
-0.06598454713821411,0.35040557384490967,0.8715168777157642,1759520230953772793,
-0.12927532196044922,0.2429572343826294,0.8934951474265277,1759520230985577197,
-0.3653026223182678,-0.02973836660385132,0.9993342959456782,1759520231012831092,
-0.5513226985931396,0.016375303268432617,0.9023790176357278,1759520231042770688,
0.10821908712387085,0.7019421458244324,0.9147857002950023,1759520231072742247,
0.4751843214035034,0.33350634574890137,0.9454766178733026,1759520231102800634,
-0.3657795786857605,0.359998881816864,0.9411508027713612,1759520231132791974,
-0.16978538036346436,0.12915551662445068,0.9183991048096235,1759520231162844862,
0.17051416635513306,0.342441201210022,0.9140169892042723,1759520231193375710,
-0.23580151796340942,0.6123118996620178,0.8881766388893115,1759520231225413332,
0.8730930089950562,0.5914439558982849,1.0253800623153928,1759520231252952482,
-0.13400739431381226,-0.14255666732788086,0.9001391389428078,1759520231282943529,
-0.08526736497879028,0.35142260789871216,0.9113909734038895,1759520231312984563,
0.03184366226196289,-0.033378541469573975,0.9425601559734275,1759520231343004467,
-0.3133178949356079,0.4715616703033447,0.9372165792072361,1759520231372991166,
0.02323603630065918,0.7135878205299377,0.9167396811055285,1759520231403018252,
-0.16445297002792358,-0.3590998649597168,0.9228790708273366,1759520231433383645,
-0.5475473403930664,0.008146345615386963,0.8508198314145533,1759520231466095577,
-0.18798810243606567,0.2788150906562805,1.0179930601671483,1759520231493083482,
-0.24184304475784302,0.23080503940582275,0.9584681321882421,1759520231522111845,
-0.12365174293518066,0.3670256733894348,0.8990510110429365,1759520231553165143,
-0.022755146026611328,0.4693092703819275,0.8836410687698214,1759520231583364277,
-0.060804784297943115,0.2961427569389343,0.8957334123183283,1759520231613192292,
-0.002926945686340332,0.46766072511672974,0.9188619878404645,1759520231643192397,
-0.3818706274032593,0.18327605724334717,0.8968498648262849,1759520231673815264,
0.09655106067657471,-0.3446137309074402,0.8805730266082712,1759520231705429350,
-0.09774887561798096,0.4954782724380493,0.9892944711009227,1759520231733250292,
0.15483301877975464,0.6867925524711609,0.8973184844347569,1759520231763333131,
0.045435190200805664,0.21584409475326538,0.9083606444502517,1759520231793285695,
-0.46260154247283936,0.14918291568756104,0.9001852487347324,1759520231823266658,
0.239962637424469,0.07511866092681885,0.9134610560954967,1759520231853298684,
-0.07770532369613647,0.20743721723556519,0.9055208342867931,1759520231883343109,
0.011332571506500244,0.7412844300270081,0.8691086311575691,1759520231914195701,
0.038186609745025635,0.43212825059890747,0.871446352970752,1759520231945427431,
-0.2850862741470337,0.13653457164764404,0.9697635690150564,1759520231973451060,
-0.08592486381530762,0.00289076566696167,0.9179005839784398,1759520232003408138,
0.10593122243881226,0.3489533066749573,0.9363243515604361,1759520232033416980,
-0.3259811997413635,0.5257508754730225,0.9165948525431832,1759520232063467750,
0.42251187562942505,0.5446126461029053,0.8862492690579297,1759520232093495855,
-0.5251918435096741,-0.3886451721191406,0.8497971082032237,1759520232123490085,
-0.17749673128128052,0.15545344352722168,0.8983616056888138,1759520232153733727,
0.12498950958251953,0.5958982110023499,0.9066180611006388,1759520232185448590,
0.30192309617996216,0.7914626002311707,0.9713771916016286,1759520232213557990,
-0.0402449369430542,0.1537628173828125,0.8804525958254202,1759520232243571598,
-0.694892168045044,-0.1190444827079773,0.9025662465112642,1759520232273552193,
0.5987285375595093,0.17281800508499146,0.904973304569475,1759520232303608590,
0.04520690441131592,0.603009819984436,0.8882392266142021,1759520232333618452,
-0.11224812269210815,0.840429961681366,0.897575802784459,1759520232363624341,
0.4428420066833496,0.02474963665008545,0.897883822994861,1759520232393774222,
-0.7121410369873047,0.18966633081436157,0.8943009806234461,1759520232424146156,
-0.12340027093887329,0.47016632556915283,0.8620561575171343,1759520232455819659,
-0.2760932445526123,0.2367287278175354,0.9948267540185953,1759520232482785246,
-0.08992093801498413,-0.1331539750099182,0.8875874074817766,1759520232513809466,
-0.02249133586883545,0.7355131506919861,0.9112670552522371,1759520232543765699,
-0.055846989154815674,0.6320632696151733,0.8892199394774607,1759520232572809067,
-0.08470273017883301,0.24149549007415771,0.8568993576086082,1759520232603762879,
-0.09898698329925537,0.6009178757667542,0.8711778431578202,1759520232633982012,
0.04277771711349487,-0.10024309158325195,0.8129289168903401,1759520232665639779,
0.04920315742492676,0.048325300216674805,0.8695631202071127,1759520232695858342,
-0.49698305130004883,0.2401750087738037,0.9203417411152048,1759520232733864699,
0.22860479354858398,-0.11063611507415771,0.8855522112286122,1759520232764085724,
-0.29945898056030273,0.17084115743637085,0.871547333823473,1759520232793956262,
0.05192762613296509,0.5355979204177856,0.8326647695512364,1759520232825550908,
-0.2025085687637329,0.44495832920074463,0.8441196932325434,1759520232856800885,
-0.3864514231681824,-0.22233623266220093,0.9571082438207252,1759520232883995593,
-0.015063345432281494,0.157698392868042,0.8780158948185278,1759520232914035945,
-0.012677669525146484,0.4324524402618408,0.878261255985021,1759520232944075898,
0.4258030652999878,0.37719714641571045,0.8857378418725727,1759520232973106017,
-0.3407684564590454,0.2503654956817627,0.8321056331403589,1759520233004077690,
-0.45875513553619385,0.20311713218688965,0.8705059489590327,1759520233034185580,
0.38817286491394043,-0.05398136377334595,0.8488960029083635,1759520233065901907,
-0.2279280424118042,0.17748409509658813,0.8719652948051011,1759520233096887610,
0.024059414863586426,0.6095948815345764,0.9917200025920716,1759520233124161119,
-0.3452567458152771,-0.1161881685256958,0.8606738132568386,1759520233154178653,
-0.29462432861328125,-0.2462146282196045,0.8425557763785739,1759520233184268088,
0.10248446464538574,0.3153274655342102,0.8662580354094513,1759520233214214046,
0.26276665925979614,0.40128976106643677,0.8754293303498019,1759520233244195177,
0.17786890268325806,0.5390893220901489,0.8619059312326686,1759520233274336417,
-0.21375519037246704,0.8030023574829102,0.8314769696564314,1759520233305504282,
-0.012089133262634277,0.2885676622390747,0.831916470771329,1759520233337694660,
-0.4266624450683594,0.36745768785476685,0.943104983219039,1759520233365021967,
0.1231393814086914,0.2981281280517578,0.8643816445344664,1759520233394343654,
-0.10065197944641113,0.16755491495132446,0.8291986700393672,1759520233425035697,
-0.13004791736602783,0.005972802639007568,0.832007615871533,1759520233455148454,
0.09807533025741577,0.1291182041168213,0.8554722794681962,1759520233485028432,
-0.27934086322784424,0.3762935996055603,0.8872913705718563,1759520233514117623,
0.5548192262649536,0.4902821183204651,0.7977708834076134,1759520233545528668,
-0.0015919804573059082,0.119998037815094,0.7773797728695249,1759520233577906548,
-0.3030509352684021,0.2558443546295166,0.9248892071490287,1759520233605041766,
0.42789727449417114,0.25884854793548584,0.8629397873379888,1759520233634132112,
-0.48218536376953125,0.49377065896987915,0.823374515637368,1759520233665058772,
-0.09375864267349243,0.42658698558807373,0.8720014380793287,1759520233694130881,
-0.27860355377197266,-0.03979837894439697,0.7816947497269768,1759520233725226789,
-0.19800764322280884,-0.11519128084182739,0.8417086221359202,1759520233754575916,
0.2770194411277771,0.3658739924430847,0.8241850421412599,1759520233785723732,
0.09090203046798706,0.44268375635147095,0.7843981182045969,1759520233818061590,
-0.19345223903656006,0.2191791534423828,0.9731685648702291,1759520233844611545,
0.020002663135528564,0.20481431484222412,0.8692361913170976,1759520233874677571,
-0.2342270016670227,0.006301581859588623,0.833044725329779,1759520233905221981,
0.16683828830718994,-0.12983089685440063,0.8736074493720428,1759520233935189251,
-0.18907970190048218,0.7261646389961243,0.8849508119832092,1759520233965159446,
0.000624239444732666,0.3180736303329468,0.8530989721857628,1759520233995221409,
-0.28407353162765503,-0.11143362522125244,0.819676942340036,1759520234025563584,
0.045889854431152344,0.1732034683227539,0.7455647898181916,1759520234057934263,
-0.053324759006500244,0.20849919319152832,0.911183547218103,1759520234085178105,
-0.5084699988365173,0.3917410969734192,0.8314114397783309,1759520234115212558,
0.01417011022567749,0.5003477334976196,0.836563707497853,1759520234145199066,
-0.5618036985397339,0.10619598627090454,0.8406655826339241,1759520234175354126,
-0.3903244733810425,-0.45816951990127563,0.8363249202894064,1759520234205284759,
0.054729461669921875,0.22561115026474,0.8284094313715722,1759520234235529520,
-0.42031604051589966,0.34057295322418213,0.8201070099102991,1759520234265775096,
0.3998088240623474,0.14834511280059814,0.7694950493433262,1759520234297977780,
-0.38900989294052124,-0.01231151819229126,0.8929081404142514,1759520234325207493,
0.19455057382583618,0.6229154467582703,0.8145121664959439,1759520234355255828,
0.07153832912445068,0.5199500918388367,0.8584801704524552,1759520234385276744,
-0.042223989963531494,0.14973163604736328,0.8552094015253794,1759520234415238434,
-0.09399336576461792,-0.08348715305328369,0.8193111343416274,1759520234445316241,
-0.30671292543411255,0.3894631266593933,0.7859981981773052,1759520234475363845,
0.07173800468444824,0.4030148386955261,0.7752788409407314,1759520234506086686,
0.08365029096603394,0.37649720907211304,0.7514045294017551,1759520234537888954,
0.14210492372512817,0.47318071126937866,0.8786421756364455,1759520234565309213,
-0.02350538969039917,-0.05578029155731201,0.8054033184291626,1759520234595288754,
0.03864789009094238,0.09218966960906982,0.8142312462735096,1759520234625364087,
-0.126140296459198,0.3788551092147827,0.8543433048355916,1759520234655457960,
-0.35526180267333984,0.51079922914505,0.855055621777929,1759520234685362693,
-0.04596811532974243,0.04443645477294922,0.8156934556265771,1759520234715188866,
-0.14577949047088623,-0.3620046377182007,0.7841040344364115,1759520234745807927,
-0.4650130271911621,0.4480178952217102,0.7373720814802442,1759520234777850749,
0.1402168869972229,0.4487641453742981,0.9192044177162275,1759520234805287289,
-0.30100154876708984,0.6387696266174316,0.8732650130930659,1759520234835243609,
-0.025581002235412598,0.46425092220306396,0.8352800303597983,1759520234865269210,
0.18861377239227295,-0.018915534019470215,0.8271288326866092,1759520234895313854,
-0.36031192541122437,-0.1920596957206726,0.8450690230019351,1759520234925345573,
0.15150564908981323,0.5758603811264038,0.836037387215293,1759520234955358106,
-0.5665189623832703,0.3441341519355774,0.7871668392194192,1759520234985969432,
-0.11868798732757568,-0.017885327339172363,0.7563025912796915,1759520235018385479,
-0.27535367012023926,0.1430513858795166,0.8911999468430558,1759520235045525069,
0.09318959712982178,0.19966340065002441,0.8115866816196347,1759520235075491459,
0.2587014436721802,0.47215813398361206,0.8080829961374277,1759520235105688004,
0.11629307270050049,0.041495561599731445,0.808565537997506,1759520235135544737,
-0.11775058507919312,0.30873334407806396,0.817446615712029,1759520235165529203,
-0.28322380781173706,0.6430989503860474,0.8037943762705576,1759520235195544964,
0.18678945302963257,0.1461285948753357,0.832613608687465,1759520235225663059,
-0.2731713652610779,0.13609153032302856,0.8024823058673791,1759520235257134251,
0.19383275508880615,0.2394552230834961,0.837323616377238,1759520235285630848,
0.018535494804382324,0.12365865707397461,0.7983657242206158,1759520235315546638,
-0.5434815287590027,0.29114097356796265,0.7882622913789201,1759520235345606424,
0.49342793226242065,0.8179541826248169,0.7932855739664819,1759520235375646379,
0.06893432140350342,0.14741730690002441,0.7923846371014861,1759520235405660749,
0.21492749452590942,0.03317922353744507,0.7729747977394043,1759520235435665090,
-0.08404171466827393,0.18111532926559448,0.7757015796238044,1759520235466314629,
-0.2092750072479248,0.3416513204574585,0.7638647338416366,1759520235498078038,
0.43883705139160156,0.5339425206184387,0.8063297595850113,1759520235527818807,
-0.40500134229660034,0.0019297003746032715,0.8578800051961176,1759520235555768070,
-0.16810035705566406,0.2453627586364746,0.7982863320674571,1759520235585840054,
0.29763633012771606,0.2682459354400635,0.7800579044713162,1759520235615828263,
-0.43626683950424194,0.37570953369140625,0.7882204731434032,1759520235645844121,
-0.12946593761444092,0.5133669376373291,0.80702109101063,1759520235676093297,
-0.2320631742477417,0.5003241896629333,0.8019012332254886,1759520235705887841,
0.10030615329742432,-0.2903602123260498,0.7524558478823684,1759520235737827203,
0.08940857648849487,-0.1487228274345398,0.7989401189128672,1759520235767861222,
-0.2872591018676758,0.12821829319000244,0.8381041017292014,1759520235805910069,
-0.26924407482147217,0.01904815435409546,0.7934628707700525,1759520235835928884,
-0.40256237983703613,0.36190229654312134,0.7667022230505915,1759520235866015574,
0.10825616121292114,0.2788652777671814,0.759764287857287,1759520235896940526,
-0.12339508533477783,0.6098018884658813,0.7522235299184394,1759520235928551842,
-0.0015250444412231445,0.19738918542861938,0.8388679672477399,1759520235966158083,
-0.4360259771347046,0.5495511293411255,0.8122196183661975,1759520235996281093,
0.3200427293777466,0.2878372073173523,0.7988846039079444,1759520236026152344,
0.17865073680877686,-0.30703282356262207,0.7604587397784479,1759520236058036252,
-0.09983700513839722,0.7946597933769226,0.8603539889461438,1759520236086177872,
0.11882054805755615,0.477064847946167,0.7918006581911071,1759520236116193762,
-0.015214204788208008,0.053227901458740234,0.786334141778948,1759520236146181125,
0.039272189140319824,-0.24149906635284424,0.7915963129943008,1759520236176213519,
-0.1741572618484497,0.33034902811050415,0.794447588930375,1759520236206188385,
0.03594493865966797,0.43778014183044434,0.7802907530831422,1759520236236181753,
0.03337442874908447,0.19548040628433228,0.7733636089055034,1759520236266264300,
-0.5263233780860901,0.08261317014694214,0.736305428417448,1759520236298300933,
-0.0974929928779602,-0.01603555679321289,0.7777296079777972,1759520236329354414,
0.06684988737106323,0.4002189040184021,0.8775903570620498,1759520236356344772,
0.0010148882865905762,0.46974003314971924,0.7701168742191712,1759520236386313846,
0.02170109748840332,0.24209296703338623,0.6668059081358353,1759520236409280817,
-0.3529895544052124,0.235781729221344,0.8290581080673012,1759520236436384080,
0.2835513949394226,0.06449306011199951,0.7845269036684521,1759520236466371280,
-0.018168330192565918,0.3375079035758972,0.6860261176903892,1759520236489977030,
0.24266773462295532,0.7527674436569214,0.8776998642908858,1759520236516459973,
-0.169511079788208,-0.16623258590698242,0.7866479530180037,1759520236546449855,
-0.4971429109573364,0.1114853024482727,0.797244920170357,1759520236576453866,
0.4872736930847168,0.3569408655166626,0.7862756882508137,1759520236606505077,
0.051841020584106445,0.4399263858795166,0.7685198223190945,1759520236636481630,
-0.19789397716522217,0.5228718519210815,0.7586320456434061,1759520236666567593,
0.1848195195198059,0.5806691646575928,0.7159819782987433,1759520236697940379,
-0.3603120446205139,-0.5283792614936829,0.7223798001411775,1759520236730023093,
0.0258980393409729,0.19028407335281372,0.8693006434933621,1759520236756567828,
0.021155476570129395,0.7273001074790955,0.7297694753025803,1759520236786535946,
0.441434383392334,0.44293975830078125,0.7637799998368935,1759520236816619582,
-0.5211896300315857,-0.24000418186187744,0.7859895451776104,1759520236846694644,
0.6350867748260498,0.4485335350036621,0.7870724651174581,1759520236876819533,
-0.27183908224105835,0.5641061663627625,0.7673549529809953,1759520236906624571,
-0.06088697910308838,0.5335438251495361,0.7065317593549751,1759520236938281179,
-0.03272479772567749,-0.22658395767211914,0.7185172463205416,1759520236969968855,
-0.2819344401359558,-0.05015909671783447,0.8488546628573945,1759520236996781788,
0.5094518661499023,0.5501275658607483,0.7528934362724766,1759520237026738101,
-0.027981936931610107,0.2547667622566223,0.7622188185829116,1759520237056773771,
-0.4422783851623535,0.13357192277908325,0.7551947726980495,1759520237086776676,
0.21579968929290771,-0.011947870254516602,0.7507869554422992,1759520237116817407,
-0.22116106748580933,0.060981154441833496,0.7863500059187202,1759520237146833324,
0.6989305019378662,0.8694897890090942,0.7451025787991392,1759520237178187643,
0.11343139410018921,0.2845234274864197,0.6940350260972629,1759520237209837980,
-0.09165406227111816,0.2503165602684021,0.8113222163109222,1759520237236939386,
-0.17746007442474365,0.06232273578643799,0.7586020283153283,1759520237266902050,
-0.017709076404571533,0.12126320600509644,0.7889783712141535,1759520237296877608,
-0.10981333255767822,0.39296847581863403,0.7557662485306137,1759520237326914684,
0.069241464138031,0.45524948835372925,0.7527952381684019,1759520237356956240,
-0.17846965789794922,0.42788368463516235,0.7750694881026345,1759520237386981892,
-0.09937679767608643,-0.06327342987060547,0.7454573850992847,1759520237417877538,
0.054634273052215576,0.1981564164161682,0.7000134321141831,1759520237450249772,
-0.11536663770675659,0.3012320399284363,0.8977045159740199,1759520237476098347,
0.03302484750747681,0.8389282822608948,0.7477973184395801,1759520237506055338,
0.4022204875946045,-0.09522992372512817,0.7092703650514781,1759520237537076212,
-0.21393251419067383,-0.2195136547088623,0.7754200030249936,1759520237566105016,
-0.22345393896102905,0.5026002526283264,0.7227505873222491,1759520237597149452,
-0.1606619954109192,0.5214211344718933,0.7626317383483359,1759520237627164131,
-0.388621985912323,0.27927911281585693,0.7236036380558001,1759520237657888056,
0.4955930709838867,0.2082432508468628,0.7219228225001617,1759520237689794796,
-0.3848652243614197,0.03196841478347778,0.8544789324370777,1759520237717364019,
-0.17997193336486816,0.845346212387085,0.7517095705744066,1759520237747244870,
0.25691354274749756,0.12767404317855835,0.7134619708074518,1759520237777236721,
-0.559436559677124,-0.46059370040893555,0.7319460168955044,1759520237807256576,
0.1133962869644165,0.1786913275718689,0.7529168804879862,1759520237837252412,
-0.19296562671661377,0.4709368348121643,0.7541827449795059,1759520237867273735,
0.17277467250823975,0.28187769651412964,0.7416766366625541,1759520237898602801,
0.056900739669799805,0.20851963758468628,0.7467205311263034,1759520237929141519,
-0.33964961767196655,-0.06610757112503052,0.8091721000488243,1759520237957422767,
0.5268028974533081,0.6724575161933899,0.7654611821140656,1759520237987390405,
-0.05102825164794922,0.30345141887664795,0.7147228864351277,1759520238017396879,
-0.008947968482971191,0.21507477760314941,0.7152977684219038,1759520238047452605,
0.027907729148864746,0.14977586269378662,0.7353324516693066,1759520238077473082,
0.1752077341079712,0.33511990308761597,0.7489537972839366,1759520238107673394,
-0.12880343198776245,0.04062187671661377,0.7215533866882454,1759520238138223450,
-0.2599009871482849,0.10054326057434082,0.710655347214393,1759520238169111035,
0.3918071985244751,0.5504712462425232,0.7864810354789384,1759520238197660411,
-0.2470177412033081,0.4607884883880615,0.7586460597600037,1759520238227541335,
0.2972468137741089,0.0030360817909240723,0.7379496415537864,1759520238257577263,
0.07893723249435425,-0.200150728225708,0.732524376048788,1759520238287581141,
-0.27626317739486694,0.6597854495048523,0.7261904842297131,1759520238317589535,
0.34316182136535645,0.7503491044044495,0.7539596233834203,1759520238347576746,
0.2870349884033203,0.19031202793121338,0.7348408108327807,1759520238378037736,
-0.27728748321533203,-0.083576500415802,0.6708455133706968,1759520238410538983,
-0.1666671633720398,0.3677080273628235,0.8310729316996311,1759520238437696734,
-0.43597257137298584,0.1862298846244812,0.745314967616641,1759520238467672143,
0.3806261420249939,0.28199946880340576,0.7247337227118342,1759520238497669214,
-0.0034148693084716797,0.10864388942718506,0.7281774441383246,1759520238527746217,
-0.3463013172149658,0.1881561279296875,0.726192775552784,1759520238557787481,
0.13044863939285278,0.2651183009147644,0.6908037112624901,1759520238587861993,
0.0067462921142578125,0.4125096797943115,0.6951076942483889,1759520238618048810,
-0.006231188774108887,-0.1459020972251892,0.6894231386515696,1759520238649898276,
-0.2861560583114624,0.09797227382659912,0.7052217229782202,1759520238679870422,
-0.35876429080963135,0.05459851026535034,0.766793977438908,1759520238707853035,
0.033716440200805664,0.7015611529350281,0.7385310965599686,1759520238737887366,
0.40456169843673706,0.3964197039604187,0.7620760637530621,1759520238767951117,
-0.1956271529197693,-0.07190907001495361,0.7310278207309571,1759520238797919412,
-0.19489294290542603,0.09687232971191406,0.7009917402532176,1759520238827940557,
-0.03491997718811035,0.2063578963279724,0.6940190254562522,1759520238858643515,
0.03047853708267212,0.190670907497406,0.7176740543371266,1759520238890200992,
0.30165964365005493,0.4137200713157654,0.7204086563843074,1759520238920613366,
-0.23341351747512817,0.0476338267326355,0.789737265160336,1759520238948018166,
-0.05103486776351929,0.2055714726448059,0.7352229003780977,1759520238978005074,
0.15341717004776,0.12942659854888916,0.7072686088049428,1759520239008047882,
-0.24058306217193604,0.17980968952178955,0.6929046780743755,1759520239038044046,
0.3604680299758911,0.5749248266220093,0.7249738478996197,1759520239068094398,
-0.4211333394050598,0.18376827239990234,0.7536416198792177,1759520239097124507,
0.28862184286117554,-0.20205283164978027,0.6551633005381177,1759520239129907050,
0.15962284803390503,-0.08453673124313354,0.6868538120948907,1759520239160984642,
0.25264227390289307,0.5419106483459473,0.817071771476158,1759520239188291692,
-0.2930545210838318,0.8842326998710632,0.7315676124366971,1759520239218172804,
-0.2933257222175598,0.11522263288497925,0.7036583281294286,1759520239248272166,
0.4347444772720337,-0.2746674418449402,0.7436101517900389,1759520239278231014,
-0.3894502520561218,0.22872281074523926,0.7221564328265668,1759520239308302219,
0.2579931616783142,0.9126450419425964,0.6762669629119433,1759520239338518201,
0.05224555730819702,0.22811001539230347,0.6490761557113712,1759520239370320243,
0.07548761367797852,0.13980567455291748,0.6752170077041526,1759520239401344851,
0.2240886092185974,0.06329953670501709,0.7610563468981509,1759520239428471547,
-0.3516309857368469,0.2944451570510864,0.7007502062634359,1759520239458436229,
0.0848035216331482,0.4736943244934082,0.6908849072580394,1759520239488481144,
-0.13273215293884277,-0.25718122720718384,0.7172651100499118,1759520239518385067,
0.004472494125366211,0.02175164222717285,0.7212720288933554,1759520239548471062,
0.3572807312011719,0.2968658208847046,0.6970723701568967,1759520239578468763,
-0.16498267650604248,0.5310561060905457,0.6769202823940625,1759520239609944294,
-0.3081681728363037,0.08637869358062744,0.6582086913123694,1759520239642230481,
-0.024975836277008057,-0.11075884103775024,0.7825202296161688,1759520239668632240,
-0.322664737701416,-0.33547013998031616,0.7000917154946786,1759520239698551951,
0.20341438055038452,0.4500212073326111,0.7102124177514509,1759520239728598769,
-0.0537373423576355,0.6418399810791016,0.6970788626043862,1759520239758591771,
-0.0050667524337768555,0.007227897644042969,0.7194831113073898,1759520239788660729,
-0.34315305948257446,-0.12399232387542725,0.7095856420651584,1759520239818630847,
-0.4235381484031677,-0.061282455921173096,0.6879973443102757,1759520239849927979,
-0.2554023265838623,0.43356096744537354,0.6564224437162127,1759520239882352767,
-0.016569793224334717,0.4387602210044861,0.7773168981796517,1759520239908798130,
0.09289693832397461,-0.038498520851135254,0.7137835341732212,1759520239938644894,
-0.6206405758857727,0.033208250999450684,0.7106605353503613,1759520239968709284,
0.20916414260864258,0.7518112063407898,0.6822522231697723,1759520239998704088,
0.07036447525024414,0.07087260484695435,0.7042452150157027,1759520240028741198,
0.15182101726531982,0.566179633140564,0.7395380940505291,1759520240058757439,
0.6117525100708008,0.9278264045715332,0.6943869455597383,1759520240090200521,
-0.35668742656707764,0.3925994634628296,0.6419630144111391,1759520240121975544,
-0.0975303053855896,0.02735954523086548,0.7821278071934555,1759520240148906461,
0.2886543869972229,-0.020185530185699463,0.6991872342946347,1759520240178925832,
-0.13959038257598877,0.3968551754951477,0.6622635693515131,1759520240208896482,
0.05974423885345459,0.5251463651657104,0.656465259964059,1759520240238944845,
-0.34341520071029663,0.13954323530197144,0.6808686487355039,1759520240268964588,
-0.12675851583480835,-0.18572890758514404,0.6847709840669706,1759520240299008766,
0.047738611698150635,0.13999038934707642,0.6641404490680923,1759520240330410341,
0.39418506622314453,0.05264556407928467,0.7002635738169403,1759520240361997714,
-0.43789762258529663,-0.10249483585357666,0.810842204179131,1759520240388141562,
-0.11698794364929199,-0.0004267692565917969,0.6984006549175955,1759520240418172609,
-0.38039934635162354,0.3117530345916748,0.6990067175432172,1759520240449100362,
0.7040292620658875,0.7343174815177917,0.6856289562648764,1759520240479044726,
0.055899858474731445,-0.35264331102371216,0.6433568818382533,1759520240509093771,
-0.3935859799385071,-0.25674939155578613,0.6810646156122154,1759520240538167215,
0.2521405816078186,0.6516016721725464,0.6508730700075757,1759520240570030176,
-0.08048921823501587,0.5070280432701111,0.6860218743444471,1759520240601951187,
0.2961916923522949,0.45491087436676025,0.7862917850093442,1759520240629171248,
0.11908715963363647,-0.23552179336547852,0.6879880846912182,1759520240659187290,
-0.2938151955604553,-0.07909142971038818,0.723775943701985,1759520240689224463,
-0.06325018405914307,0.13204699754714966,0.6815969094879057,1759520240719292294,
0.134535014629364,0.4484545588493347,0.6409489689489809,1759520240749338513,
-0.1997174620628357,0.10156452655792236,0.6936957669390347,1759520240778274110,
-0.09577673673629761,0.028523623943328857,0.6622064296928732,1759520240810146725,
-0.1425444483757019,0.2254200577735901,0.6621226011345799,1759520240842359723,
0.25351661443710327,0.202772319316864,0.7912979609780811,1759520240869373799,
0.022283852100372314,0.11480057239532471,0.7085373356313086,1759520240899341778,
-0.5270110368728638,0.07942360639572144,0.6939747950242072,1759520240929334122,
-0.41775888204574585,0.23286092281341553,0.6792540928047284,1759520240959409612,
0.21589618921279907,0.4419708847999573,0.6494270443376337,1759520240989441954,
0.09666770696640015,-0.19954383373260498,0.6515130809612508,1759520241019408145,
-0.17535853385925293,0.3136299252510071,0.6491130734620891,1759520241050061645,
0.16401243209838867,0.44829827547073364,0.6635173933365333,1759520241081216408,
-0.4336436986923218,0.6183333992958069,0.735066900251243,1759520241109521451,
-0.016029298305511475,-0.045478105545043945,0.6881955491299037,1759520241139544930,
-0.3184462785720825,-0.1566556692123413,0.6745341891952602,1759520241169537296,
-0.21412163972854614,-0.009881854057312012,0.6897950017987182,1759520241199659273,
-0.09654968976974487,-0.13807737827301025,0.7130972392472783,1759520241229628942,
-0.22054749727249146,0.2787508964538574,0.6859223233252215,1759520241259589050,
0.15256404876708984,0.29819875955581665,0.6286809562833826,1759520241291204642,
0.35046184062957764,0.3329906463623047,0.6630627597459188,1759520241322296961,
0.10174590349197388,0.2359878420829773,0.7587017029479769,1759520241349738548,
-0.3473150134086609,-0.019629836082458496,0.6785600383701085,1759520241379711473,
-0.2050049901008606,0.43368953466415405,0.6771323659037293,1759520241409662704,
0.2098788022994995,0.216422438621521,0.711402873536981,1759520241439825434,
0.24990224838256836,0.615822970867157,0.6895759103444095,1759520241469714594,
-0.02356952428817749,-0.12618005275726318,0.6530969959452894,1759520241499832290,
-0.6206185221672058,0.3239520192146301,0.6397679743008333,1759520241530398610,
0.2410603165626526,0.036037564277648926,0.6253593731731657,1759520241561978093,
-0.1137535572052002,0.07948094606399536,0.7321343081791091,1759520241589866451,
-0.2737314701080322,0.30220139026641846,0.6571048798064418,1759520241620558366,
0.10442858934402466,0.27176910638809204,0.6752079259038529,1759520241650457558,
-0.880677342414856,-0.2575361728668213,0.6858944896450744,1759520241680531858,
0.16872334480285645,0.08179628849029541,0.6785685740310051,1759520241710504255,
0.17651069164276123,0.2127513885498047,0.6780554323235513,1759520241740563956,
-0.30286353826522827,0.34122079610824585,0.6776734237753408,1759520241770512273,
-0.334333598613739,0.08939415216445923,0.61241805545036,1759520241802357137,
-0.5238984227180481,-0.4274120330810547,0.6502062284971669,1759520241831968892,
-0.027722597122192383,0.031756043434143066,0.7015115920172661,1759520241860566403,
0.17530518770217896,0.2678152918815613,0.662628261398102,1759520241890593419,
-0.2411487102508545,0.22802776098251343,0.6488704020526475,1759520241920592953,
-0.1432545781135559,0.2917332053184509,0.6961141806840732,1759520241950550476,
0.014020144939422607,0.4568111300468445,0.6819681136216307,1759520241980626697,
-0.09770387411117554,0.28826743364334106,0.6698306445436677,1759520242010707001,
-0.2452249526977539,0.1715484857559204,0.6536450957936567,1759520242041194455,
0.6513171792030334,0.39277583360671997,0.6321589688217352,1759520242072075981,
-0.6274007558822632,-0.20911788940429688,0.6682763827984879,1759520242100867528,
0.48489177227020264,0.3034849762916565,0.6626699213294992,1759520242130620614,
-0.42371439933776855,0.6143960356712341,0.6650119380540458,1759520242160697701,
0.1547415852546692,0.6352595090866089,0.6691814344042547,1759520242190611404,
0.09781301021575928,-0.023437201976776123,0.6561083683423234,1759520242220622229,
-0.2490118145942688,0.03927403688430786,0.6526110852743637,1759520242250644365,
-0.0034259557723999023,0.23854601383209229,0.6575504563182163,1759520242281203327,
-0.2501482367515564,0.6010669469833374,0.6292582398939639,1759520242312748314,
0.23138278722763062,0.3978281021118164,0.7220574027764998,1759520242340667385,
0.051123976707458496,0.1858612298965454,0.6504417232033503,1759520242370609945,
0.002554655075073242,-0.024506032466888428,0.6399868312461059,1759520242400659497,
-0.18248605728149414,0.11721301078796387,0.6531108951166779,1759520242430594888,
-0.20146435499191284,0.6738553047180176,0.6345216873978893,1759520242460701115,
0.40014755725860596,0.2548588514328003,0.6304743391181882,1759520242490707328,
-0.336495578289032,-0.04959338903427124,0.6321932626923406,1759520242521177036,
-0.0738447904586792,-0.14703136682510376,0.607543927258608,1759520242553419545,
-0.31807053089141846,0.09701788425445557,0.7593674475484291,1759520242580775462,
0.06889104843139648,0.87051922082901,0.703919136385593,1759520242610632942,
0.1920260787010193,0.6050275564193726,0.644351828727249,1759520242640748815,
-0.5320072174072266,-0.09140825271606445,0.6132473706225661,1759520242670699430,
0.3003199100494385,-0.2962365746498108,0.6402570891445443,1759520242700740266,
-0.24342721700668335,0.2716791033744812,0.6532581871042209,1759520242731080030,
-0.12784874439239502,0.7925720810890198,0.6216365670239264,1759520242762584292,
0.041900813579559326,0.3561747670173645,0.6087647438279828,1759520242794262705,
0.224259614944458,-0.01840972900390625,0.7554204246940407,1759520242820866136,
-0.23146170377731323,-0.326371967792511,0.6688526289169823,1759520242850820268,
-0.347359836101532,0.19471865892410278,0.6409086993889753,1759520242880900954,
0.0666690468788147,0.4082908630371094,0.6230353897782339,1759520242910843869,
-0.14755290746688843,0.157118558883667,0.6164193165903257,1759520242941012928,
-0.0023435354232788086,0.37406617403030396,0.6226237672493637,1759520242971231735,
-0.03329634666442871,0.3252875804901123,0.630932235949618,1759520243002430386,
-0.16882538795471191,0.364896297454834,0.6487040485550609,1759520243033725535,
-0.13687896728515625,-0.11179423332214355,0.742759336621208,1759520243060966376,
-0.2382906675338745,0.1251692771911621,0.6653631187015105,1759520243090931461,
0.25655990839004517,0.22413629293441772,0.6501618743521597,1759520243120910556,
0.02078312635421753,0.29361432790756226,0.6391536587042911,1759520243150885965,
-0.05928802490234375,0.26180362701416016,0.6355062708584007,1759520243180945622,
-0.09374511241912842,0.5526708960533142,0.6365215609487984,1759520243210983654,
0.241990864276886,0.1599637269973755,0.6500750407420112,1759520243241195606,
0.08842658996582031,0.12241172790527344,0.5682176879742743,1759520243274718697,
0.004807710647583008,0.14411163330078125,0.7174587565931465,1759520243301041777,
-0.02099478244781494,0.49392545223236084,0.6668301435508812,1759520243330953031,
-0.26494300365448,0.3539593815803528,0.6569817793640974,1759520243360988983,
0.3284303545951843,0.45014750957489014,0.6330295582626089,1759520243391010855,
-0.1612147092819214,0.058272600173950195,0.6287602249914155,1759520243421014024,
0.2914319634437561,0.31287914514541626,0.6465383260716724,1759520243451042849,
-0.006685614585876465,0.22013598680496216,0.6115436513801124,1759520243482215309,
-0.41441720724105835,0.23450344800949097,0.5831697816444771,1759520243514092632,
0.5414164066314697,0.28092509508132935,0.6940747662575522,1759520243541250626,
-0.18907755613327026,-0.02361243963241577,0.6539167025796657,1759520243571059539,
-0.09740018844604492,0.5831648111343384,0.6518640083297534,1759520243601077310,
0.11239433288574219,0.42554712295532227,0.6430955446157877,1759520243631097707,
-0.21905165910720825,0.20458054542541504,0.6563506919062637,1759520243660116232,
-0.04213815927505493,0.062103986740112305,0.618690815077219,1759520243691177019,
-0.161609947681427,0.08103823661804199,0.5884672921238377,1759520243722782423,
0.05295896530151367,0.4617893099784851,0.6056363796964251,1759520243754645597,
-0.06799185276031494,0.24751019477844238,0.7037085706799321,1759520243781495587,
0.1974431872367859,0.21143072843551636,0.6253696600779844,1759520243811313363,
-0.18302148580551147,0.19021105766296387,0.6372660451496474,1759520243841459059,
-0.18049031496047974,0.34161537885665894,0.6336035653622255,1759520243871509759,
0.009180784225463867,0.35134315490722656,0.6440330083940705,1759520243901314146,
-0.26897770166397095,-0.10107839107513428,0.6242453501110984,1759520243931396040,
0.6992300748825073,0.2582840323448181,0.581312835344583,1759520243962092299,
-0.31259584426879883,-0.17665815353393555,0.5532512486328234,1759520243994042451,
-0.2041776180267334,0.4102802872657776,0.6415033165384896,1759520244021432862,
0.4244232773780823,0.3026732802391052,0.6188574814860165,1759520244051420361,
-0.058082759380340576,0.3934726119041443,0.6465910393083699,1759520244081387254,
0.004999995231628418,0.02320122718811035,0.6417523204636075,1759520244111456069,
-0.44433289766311646,-0.1124834418296814,0.6229521956546813,1759520244141453308,
0.09231382608413696,0.1837415099143982,0.6326652994984437,1759520244171510916,
0.23369133472442627,0.6317332983016968,0.6654337594704363,1759520244201180301,
-0.0372433066368103,0.6254668235778809,0.5527822051551484,1759520244235002551,
-0.17508620023727417,-0.23988556861877441,0.6745658334986503,1759520244261604020,
0.3259449005126953,0.01716393232345581,0.6331250485353542,1759520244291589770,
-0.39227724075317383,0.31313854455947876,0.631433415247935,1759520244321630723,
-0.1403942108154297,0.39236998558044434,0.6145136545881313,1759520244351657687,
0.11840575933456421,0.5122160911560059,0.6178221739054484,1759520244381642032,
0.0919795036315918,-0.06570005416870117,0.6804363756250893,1759520244411724541,
0.04618936777114868,0.39197689294815063,0.6741587077917855,1759520244442092639,
0.11763447523117065,0.21575933694839478,0.5833231207936815,1759520244474074566,
-0.3224650025367737,0.2530074119567871,0.6521139828788318,1759520244501759269,
0.3838430643081665,0.156103253364563,0.61699379143051,1759520244531735116,
-0.2548379898071289,0.11746370792388916,0.6113635688841083,1759520244561739846,
-0.25537109375,0.42955368757247925,0.5950021122679867,1759520244591817395,
0.3710131049156189,0.1586982011795044,0.613723982670301,1759520244621749986,
-0.2520412802696228,0.459001362323761,0.6350283037106451,1759520244651825510,
-0.003300487995147705,0.2550502419471741,0.6140619192955771,1759520244682738965,
-0.17826628684997559,0.5348389744758606,0.6033102590560152,1759520244713155017,
0.010374248027801514,0.17315316200256348,0.6550719416181106,1759520244741946233,
-0.2140026092529297,0.18473315238952637,0.6120598330434497,1759520244771891961,
0.214768648147583,0.14930027723312378,0.5873368623907683,1759520244801908118,
-0.2086964249610901,-0.11177706718444824,0.607291502684938,1759520244832033017,
0.033583760261535645,0.18622320890426636,0.6214868286193781,1759520244861982696,
-0.037052690982818604,0.08443176746368408,0.6255173206935273,1759520244892016060,
0.055112242698669434,0.474298894405365,0.6699182876286086,1759520244921196515,
0.2715229392051697,0.29281049966812134,0.5562166596392812,1759520244954147432,
-0.49233943223953247,-0.08442753553390503,0.5836156894692328,1759520244984171638,
0.030860841274261475,0.14495664834976196,0.6576160579857918,1759520245012083725,
-0.06565099954605103,0.3906075954437256,0.6391023583551221,1759520245042076946,
0.12052839994430542,0.37279361486434937,0.6370677962431407,1759520245071205806,
-0.022249042987823486,0.17315971851348877,0.5982337841233611,1759520245101181998,
0.15260964632034302,0.04384779930114746,0.5943502180703731,1759520245132243286,
-0.02671825885772705,0.09164625406265259,0.6379596781690211,1759520245162382620,
-0.12379944324493408,0.5471932291984558,0.5595217417701808,1759520245194784645,
0.019355595111846924,0.3990587592124939,0.6222816077380349,1759520245224227811,
-0.12784969806671143,-0.30129677057266235,0.6601423666542623,1759520245252312818,
0.06434720754623413,0.06452912092208862,0.6103537822210799,1759520245282296379,
-0.08175623416900635,0.19992899894714355,0.6156979966017556,1759520245312324891,
-0.13737058639526367,0.2150583267211914,0.6166186017100238,1759520245342336425,
0.1135854721069336,0.1000601053237915,0.6198171891166921,1759520245372345619,
-0.1672939658164978,0.1747543215751648,0.6156891805125824,1759520245402355671,
0.31771188974380493,0.5013546347618103,0.5585947348331552,1759520245434411616,
-0.010169625282287598,0.2593836188316345,0.5980082029247168,1759520245464594373,
-0.3294820189476013,0.07521182298660278,0.674896800760793,1759520245492398037,
0.1861010193824768,0.1860206127166748,0.6254950428216389,1759520245522399589,
-0.19212603569030762,0.2749614119529724,0.6072846646474502,1759520245552464223,
-0.009219110012054443,0.17772990465164185,0.6398730859753959,1759520245581480422,
-0.09214478731155396,0.18660873174667358,0.5795156065615236,1759520245612640013,
0.055854082107543945,0.25593847036361694,0.643901681945407,1759520245641593265,
0.06639420986175537,0.3044080138206482,0.5483382496747355,1759520245675019061,
0.1724277138710022,0.3779017925262451,0.5998635219445321,1759520245704519000,
-0.054068684577941895,0.15625107288360596,0.6990066913383538,1759520245731500124,
-0.15898007154464722,0.4161812663078308,0.6199972010457312,1759520245762538055,
0.013216733932495117,0.07046568393707275,0.620093870396389,1759520245792563711,
-0.3313484191894531,0.15658831596374512,0.6071600012483099,1759520245822595155,
0.1546284556388855,0.15911704301834106,0.596884940448942,1759520245852651601,
0.17499840259552002,0.1557302474975586,0.6038071378042534,1759520245882655455,
-0.07597428560256958,0.3129281997680664,0.5754311667162887,1759520245914499171,
0.25938767194747925,0.32709020376205444,0.5617737505180826,1759520245945662823,
-0.0315362811088562,-0.10590755939483643,0.6556798643384806,1759520245972763415,
0.05789452791213989,0.10560530424118042,0.6397821779002689,1759520246002741119,
0.011226415634155273,0.6616827249526978,0.6119119319069118,1759520246032744201,
-0.017527282238006592,0.12326478958129883,0.600726525620566,1759520246062789632,
-0.22028326988220215,-0.3180277347564697,0.6320919524421971,1759520246092774929,
0.03865307569503784,-0.07763749361038208,0.6220914486651028,1759520246122847139,
0.045067548751831055,0.39273500442504883,0.5472833448091621,1759520246154610885,
0.22215938568115234,0.6279855966567993,0.540895135037162,1759520246186219951,
0.02518641948699951,0.1420186161994934,0.6931340711885602,1759520246212909742,
-0.17045074701309204,-0.18866103887557983,0.6181526988343113,1759520246242867035,
0.08636391162872314,0.18723595142364502,0.5988688324527663,1759520246272883001,
0.07531106472015381,0.13533228635787964,0.6187681131417354,1759520246302913290,
-0.11814773082733154,0.32333534955978394,0.6277449051790713,1759520246332921054,
0.2533298134803772,0.48965227603912354,0.625046333969335,1759520246362990888,
-0.10922706127166748,0.10326749086380005,0.5794176685256563,1759520246394181653,
-0.25697070360183716,-0.04332607984542847,0.5438501811669796,1759520246426274698,
-0.043123841285705566,0.0373225212097168,0.6831823258092813,1759520246452112114,
0.05416899919509888,0.004894435405731201,0.5938149429265985,1759520246483166828,
-0.03932470083236694,0.2962961196899414,0.6097750730728473,1759520246513091638,
0.0715901255607605,0.3413982391357422,0.642459993411694,1759520246543100459,
0.09281700849533081,0.39399850368499756,0.642439818669475,1759520246573078956,
0.3311150074005127,0.32760411500930786,0.6165379061542533,1759520246602117736,
-0.10650825500488281,-0.2606944441795349,0.5553384398066764,1759520246634221485,
-0.6180370450019836,0.14457976818084717,0.5422673214345255,1759520246666702248,
0.7078797221183777,0.2568396329879761,0.6289079193405906,1759520246693179716,
-0.2421625256538391,0.2777773141860962,0.5701067101362122,1759520246723170433,
0.0019243359565734863,0.8178602457046509,0.5810669704515881,1759520246753162603,
0.07262152433395386,-0.16359937191009521,0.5987020421069444,1759520246783206861,
-0.23245000839233398,-0.10385268926620483,0.6147497510445342,1759520246813263700,
0.06431210041046143,0.06367158889770508,0.6190678995973699,1759520246843308647,
-0.36586451530456543,0.2801234722137451,0.5784118000996169,1759520246874160696,
-0.300325870513916,0.08002954721450806,0.5529306580905544,1759520246906233886,
-0.05298459529876709,-0.0946129560470581,0.6514811580669608,1759520246933413195,
-0.06637156009674072,0.07758951187133789,0.5896966976803013,1759520246963393810,
-0.05496877431869507,0.41384339332580566,0.5860126265515275,1759520246993395911,
0.3635546565055847,0.23500442504882812,0.5907065849021876,1759520247023403616,
0.3697269558906555,-0.11670154333114624,0.6163187450868731,1759520247053411999,
-0.3256901502609253,0.03718256950378418,0.6026430434421709,1759520247083453899,
0.03465145826339722,0.2512977719306946,0.5508977298079508,1759520247114667548,
-0.1520538330078125,0.44618386030197144,0.545370651611961,1759520247146501327,
0.23013848066329956,0.533048689365387,0.670535912676614,1759520247173794056,
-0.10455101728439331,0.054612934589385986,0.620031381665402,1759520247203560551,
-0.05901455879211426,0.5691680312156677,0.5556005635375417,1759520247225285083,
0.007490575313568115,0.0218508243560791,0.629008053991762,1759520247262569292,
-0.16584491729736328,0.4398539662361145,0.5966375809632743,1759520247293592896,
0.36841386556625366,0.49180281162261963,0.6211293415923156,1759520247323653453,
0.03779959678649902,0.5411194562911987,0.6112537543069105,1759520247354223808,
-0.3008100390434265,0.20797580480575562,0.5757662352733105,1759520247386221975,
0.09347289800643921,0.16108852624893188,0.6514552180071262,1759520247413699089,
-0.6382085084915161,-0.26126015186309814,0.560113780658759,1759520247443691065,
-0.029330790042877197,0.20703983306884766,0.5847047575881349,1759520247473692230,
-0.11758869886398315,-0.08737313747406006,0.5695152872254463,1759520247503753842,
0.1645490527153015,0.5103498697280884,0.5869869721991124,1759520247533733194,
0.3955281376838684,0.3070790767669678,0.5726032396525541,1759520247563791839,
-0.1507798433303833,0.5379598140716553,0.5505260727214096,1759520247594558380,
-0.6524893045425415,-0.32646483182907104,0.5546728090683066,1759520247626848982,
0.33757323026657104,-0.0007419586181640625,0.6681959272612632,1759520247653879997,
-0.10365629196166992,0.5027388334274292,0.5734128185540367,1759520247683846783,
-0.023230254650115967,0.2328912615776062,0.5917561951063787,1759520247713812226,
-0.2998332977294922,0.22609364986419678,0.5781473210925775,1759520247743895159,
0.044549643993377686,0.08449900150299072,0.5746753225574389,1759520247773891824,
-0.18533527851104736,0.03067302703857422,0.5854027363731575,1759520247803917883,
0.036374807357788086,0.04815232753753662,0.5651448246220632,1759520247834247073,
0.05669450759887695,-0.1951938271522522,0.5358410483895949,1759520247866279178,
-0.45299452543258667,0.08723306655883789,0.6284889279968671,1759520247894039499,
0.2973875403404236,0.37701165676116943,0.5896278275344664,1759520247923989947,
-0.1269785761833191,0.14985936880111694,0.5936353204241664,1759520247954011760,
-0.4805397391319275,0.23378396034240723,0.5555350538977379,1759520247984089462,
0.19662106037139893,0.276619553565979,0.5703624805469487,1759520248014079117,
-0.46556591987609863,-0.13181257247924805,0.5727077307319943,1759520248044156137,
0.1489039659500122,0.15490978956222534,0.5592919093240095,1759520248074870664,
0.12255775928497314,-0.19503253698349,0.5613969352266465,1759520248106276247,
0.05393308401107788,0.4785214066505432,0.6359441587980509,1759520248134176851,
0.17916232347488403,0.5111875534057617,0.5847666169353036,1759520248164162235,
-0.22761905193328857,0.04244351387023926,0.5726765228776782,1759520248194248570,
0.13197654485702515,0.3496106266975403,0.5758558220763315,1759520248224505669,
0.14929097890853882,0.337060809135437,0.5818745363581438,1759520248254367543,
-0.06510293483734131,0.09351003170013428,0.5631053362137781,1759520248284220424,
-0.4630317687988281,-0.218067467212677,0.539717271780635,1759520248314311389,
0.11156612634658813,0.02907198667526245,0.5341220236428398,1759520248346458949,
-0.21176981925964355,0.47745686769485474,0.6528783693008072,1759520248374394117,
0.3207835555076599,0.6077695488929749,0.5701554141284592,1759520248404280325,
-0.18654662370681763,-0.08863145112991333,0.5879100289621655,1759520248434325470,
0.13575375080108643,-0.4710928797721863,0.6116581373132588,1759520248464383467,
0.4777255654335022,0.5395983457565308,0.5761912260634845,1759520248494426852,
-0.1365971565246582,0.3449779152870178,0.562085793078842,1759520248524369217,
0.10079139471054077,0.2880159020423889,0.5646954697567931,1759520248554462112,
0.08541381359100342,0.08882933855056763,0.5197124523641403,1759520248586899671,
-0.1640338897705078,0.14198088645935059,0.5606056360359734,1759520248616534898,
0.27282845973968506,0.1826348900794983,0.6015051326764921,1759520248644481552,
-0.07497555017471313,0.21179121732711792,0.5740809019400787,1759520248674516116,
-0.20235711336135864,-0.0924786925315857,0.6125395393031842,1759520248704552920,
-0.280367374420166,0.027204275131225586,0.5963014754382681,1759520248734529341,
-0.11491560935974121,0.12679898738861084,0.5859921608669696,1759520248764562016,
-0.18909019231796265,0.0375211238861084,0.581673649899075,1759520248794581140,
0.19485503435134888,0.37780529260635376,0.5458309534295367,1759520248826520311,
0.05759632587432861,0.11150527000427246,0.5564557192640542,1759520248856540058,
0.09272897243499756,0.08896052837371826,0.5897403493786636,1759520248884693834,
0.326371431350708,-0.10025691986083984,0.571215343776627,1759520248913639736,
-0.37924301624298096,0.09710359573364258,0.5376167982087096,1759520248944687782,
0.28320789337158203,0.5910283327102661,0.569798371574225,1759520248974718732,
-0.16148704290390015,0.30590564012527466,0.560634507291581,1759520249004704287,
-0.32060956954956055,-0.2090665102005005,0.5611115079950773,1759520249034842894,
0.39309871196746826,-0.3008965253829956,0.5506825470029139,1759520249066581655,
-0.18296098709106445,0.39554983377456665,0.57194996756443,1759520249096822361,
-0.03941434621810913,-0.06906741857528687,0.6098054917742205,1759520249124928965,
-0.16462785005569458,-0.3955399990081787,0.548760126280768,1759520249154815255,
0.10546135902404785,0.4332890510559082,0.5576627682486062,1759520249184836289,
0.24131470918655396,0.7469823360443115,0.5569453453148024,1759520249214858828,
0.19671809673309326,0.42059338092803955,0.5716865206859779,1759520249244909434,
0.3411927819252014,0.26133763790130615,0.578338283614505,1759520249274953525,
-0.10076242685317993,0.03048861026763916,0.5245872855083965,1759520249306323257,
-0.0900794267654419,0.2039598822593689,0.5230031323046718,1759520249337695117,
-0.6330887079238892,-0.19145649671554565,0.6212864188955811,1759520249364926604,
0.29541319608688354,0.18778151273727417,0.5629939672106047,1759520249394959978,
-0.29743140935897827,-0.13963401317596436,0.5436434957155192,1759520249424993958,
0.04313760995864868,0.33744215965270996,0.5576839820977564,1759520249455008466,
0.3677372336387634,0.3425399661064148,0.547072905867208,1759520249485052105,
0.1201702356338501,0.11989778280258179,0.5940276919582962,1759520249514116575,
0.06279903650283813,0.3012162446975708,0.503072857464384,1759520249546782532,
-0.4402087330818176,-0.046993792057037354,0.5252792812910005,1759520249577145310,
0.4872676730155945,-0.17103803157806396,0.6163033990666342,1759520249605161164,
-0.144300639629364,-0.07785248756408691,0.5806968990374334,1759520249634132732,
0.1933128833770752,0.639435887336731,0.4795824086231723,1759520249665255099,
-0.17960113286972046,0.2914048433303833,0.4971271432856746,1759520249695185835,
-0.3348761796951294,0.0561603307723999,0.5332926677890435,1759520249725251283,
0.334175169467926,-0.29318201541900635,0.5513909063297923,1759520249755865979,
-0.48683345317840576,-0.16418862342834473,0.5162901119426925,1759520249786658420,
0.3149145245552063,0.2332412600517273,0.4783432209251281,1759520249818660225,
-0.4316219687461853,-0.12690192461013794,0.5951541947376292,1759520249845913935,
-0.29152023792266846,0.46918511390686035,0.5832056965090063,1759520249875940165,
0.13188844919204712,0.1253167986869812,0.5459016863698829,1759520249905975070,
0.13080710172653198,-0.1473504900932312,0.5277661331676045,1759520249936037579,
0.03633129596710205,-0.1643810272216797,0.5373219725248537,1759520249966021168,
0.11111330986022949,0.10604047775268555,0.5107828260565186,1759520249996100272,
-0.6186267137527466,-0.14865750074386597,0.5074953477786763,1759520250026397075,
-0.10791909694671631,0.15890419483184814,0.4880463933508257,1759520250058443552,
-0.01675248146057129,0.3042040467262268,0.6170224225103121,1759520250086149274,
-0.28011876344680786,0.5068045258522034,0.55315098955999,1759520250116499678,
0.3804296851158142,0.38671940565109253,0.5500563051989764,1759520250146025301,
-0.43907028436660767,-0.19565534591674805,0.5267517972503161,1759520250176064571,
-0.12471264600753784,0.1813507080078125,0.5160724765421923,1759520250205993683,
0.16169828176498413,0.5265371799468994,0.5336677529481015,1759520250236039141,
-0.240309476852417,0.14140230417251587,0.5343708514613531,1759520250266760687,
0.1329396367073059,-0.22336268424987793,0.491639179491234,1759520250299178935,
-0.11148500442504883,0.22715890407562256,0.5871711319327734,1759520250326026640,
0.05161494016647339,0.17911165952682495,0.5434150682665643,1759520250356021141,
-0.3244473934173584,0.7399014234542847,0.5248889063993805,1759520250386035440,
0.2896670699119568,0.2788439989089966,0.5062346883773123,1759520250415618716,
-0.17341017723083496,0.02685379981994629,0.5350616970469767,1759520250445634542,
-0.14257144927978516,0.22938477993011475,0.5346223762579204,1759520250475657836,
-0.21492904424667358,-0.23799937963485718,0.5488508090648022,1759520250505767884,
0.05219036340713501,0.19083815813064575,0.5077311820557971,1759520250538490528,
0.18501269817352295,0.7682838439941406,0.6106353779725697,1759520250565786728,
-0.1880655288696289,0.5064669847488403,0.5681626839343389,1759520250595748130,
-0.23144906759262085,0.034631550312042236,0.531880794592016,1759520250625795229,
0.2054460048675537,0.05441206693649292,0.5508982107188125,1759520250655838082,
-0.3442988991737366,0.23952627182006836,0.5894561179465457,1759520250685118642,
0.07831430435180664,0.5836265087127686,0.5369162739495166,1759520250715852809,
-0.31574147939682007,-0.1491895318031311,0.5102473216930425,1759520250746869100,
-0.027940869331359863,-0.36772847175598145,0.5288340153648174,1759520250779224314,
-0.20914512872695923,0.007538914680480957,0.6357992655849338,1759520250805959994,
-0.049470722675323486,0.5891054272651672,0.5452179073333986,1759520250836003125,
-0.21479642391204834,-0.1013229489326477,0.5510381823997332,1759520250866248571,
0.3388833999633789,0.3534778952598572,0.5669823177726832,1759520250896189676,
-0.031042277812957764,0.2613331079483032,0.5512487571795641,1759520250925962422,
0.015398561954498291,0.43227970600128174,0.5428154677127808,1759520250956051317,
-0.09821325540542603,-0.1321752667427063,0.5325837631262244,1759520250986564648,
-0.4234088063240051,-0.12494975328445435,0.4980598001303378,1759520251018789802,
0.39786726236343384,0.21583425998687744,0.5857151814980514,1759520251046150202,
-0.07365190982818604,0.48168009519577026,0.5463876010395824,1759520251075124615,
-0.03774935007095337,0.34055882692337036,0.5642110878680261,1759520251105110952,
-0.11291283369064331,0.3950062394142151,0.5668512010357248,1759520251136168244,
-0.012155532836914062,0.13340681791305542,0.569413330273888,1759520251166178098,
0.14281326532363892,0.23540884256362915,0.5506778472483848,1759520251196414229,
-0.11507010459899902,0.08295249938964844,0.5423115895603503,1759520251226606148,
0.4241250157356262,0.34135353565216064,0.5167927252506106,1759520251259086480,
-0.29027122259140015,0.09043902158737183,0.5828573455361384,1759520251286384876,
0.06741565465927124,0.06731921434402466,0.5429642602825592,1759520251316229695,
0.045172810554504395,0.06399255990982056,0.574384866484619,1759520251346278854,
0.2128661870956421,0.7754623293876648,0.5480256079994801,1759520251376284621,
-0.09416872262954712,0.24901258945465088,0.5404875404918354,1759520251406274137,
-0.6891255378723145,-0.1741853952407837,0.546121636121901,1759520251436296983,
0.33139026165008545,-0.04809457063674927,0.5589786299059402,1759520251466421725,
-0.2136836051940918,0.14121359586715698,0.5277929303019214,1759520251498566029,
-0.05786985158920288,0.557769238948822,0.5929998236603701,1759520251526440679,
0.07327038049697876,0.17999792098999023,0.5242832771838593,1759520251556396212,
-0.18878191709518433,-0.22112464904785156,0.5438113896204931,1759520251586431284,
0.02271711826324463,0.22903567552566528,0.525495984009246,1759520251616487170,
-0.16663622856140137,0.3726620078086853,0.5274586566695255,1759520251646501591,
-0.01965916156768799,0.16665583848953247,0.5372162349969823,1759520251676753796,
-0.28160566091537476,0.05586737394332886,0.5238297633808715,1759520251706874545,
-0.23513829708099365,-0.13696789741516113,0.5112019889681377,1759520251738905147,
-0.3071855306625366,0.30264514684677124,0.5928243983532974,1759520251766750791,
0.26740896701812744,0.07283514738082886,0.5419961751258454,1759520251796563613,
-0.20585060119628906,-0.07079929113388062,0.5163736759546613,1759520251826573523,
-0.05894124507904053,0.5009243488311768,0.5101685794836903,1759520251856643743,
-0.0701492428779602,0.14723831415176392,0.5178701482280866,1759520251886596246,
-0.06894940137863159,0.28816014528274536,0.548137265677935,1759520251916634755,
-0.014069080352783203,0.26075994968414307,0.5716778703885169,1759520251946694665,
0.6981930136680603,0.32093411684036255,0.5152008165225728,1759520251978634069,
-0.09752523899078369,-0.3090439438819885,0.5115759549230666,1759520252008718227,
1.6324551105499268,0.4514541029930115,0.5983479981357529,1759520252036789160,
0.18228745460510254,0.23620319366455078,0.5259763383123119,1759520252066759424,
-0.23615050315856934,0.8778076171875,0.4918105866190683,1759520252088791082,
-0.28484082221984863,-0.393426775932312,0.5661016055519668,1759520252126791811,
0.034148335456848145,0.09932005405426025,0.5837464790518021,1759520252155805536,
0.1187315583229065,1.174559473991394,0.5132041221952129,1759520252187084218,
-0.199074387550354,0.19637703895568848,0.4723850052532972,1759520252219076158,
0.4323861598968506,-0.48968279361724854,0.572656584661079,1759520252249692270,
0.05281275510787964,0.07242023944854736,0.593532776211781,1759520252276939023,
-0.03875076770782471,0.22494018077850342,0.47418199561129476,1759520252306891343,
-0.3413926959037781,-0.04584890604019165,0.4869187817040657,1759520252336928700,
0.049106717109680176,0.38205963373184204,0.5201774371711125,1759520252366977907,
0.09035438299179077,0.4379217028617859,0.5392206082312432,1759520252396932922,
0.12744736671447754,0.09788811206817627,0.5113401195786869,1759520252426978140,
-0.014194011688232422,0.0019579529762268066,0.46984914472049916,1759520252458700783,
0.3131282925605774,0.14763301610946655,0.5257089448550905,1759520252489781548,
-0.2222745418548584,0.5135908126831055,0.5852540237023622,1759520252517039550,
-0.14361292123794556,0.12667667865753174,0.5088186963816649,1759520252547030412,
-0.39352184534072876,-0.7652848958969116,0.5083020629455318,1759520252577090409,
0.26742786169052124,-0.15451377630233765,0.5679425993432187,1759520252607173099,
0.014066755771636963,0.4670436978340149,0.5428953977667892,1759520252637314878,
-0.15190786123275757,-0.22366279363632202,0.5115876732556274,1759520252667208741,
0.513489305973053,0.25384271144866943,0.48644117727611264,1759520252698735925,
-0.2795758843421936,0.3365821838378906,0.49882707714839075,1759520252730057749,
-0.16625350713729858,0.6743218898773193,0.5972140035833922,1759520252757278029,
-0.04984086751937866,-0.04001128673553467,0.542029937886207,1759520252787273097,
0.06301730871200562,0.4466063380241394,0.553759805400332,1759520252827273530,
0.0023611783981323242,0.5551891922950745,0.49709206166093695,1759520252859410049,
-0.3668389916419983,0.06488156318664551,0.4796923308569132,1759520252890615896,
-0.15378409624099731,-0.3513854146003723,0.5892948202397179,1759520252917367461,
0.35132020711898804,0.35778796672821045,0.5470506593576266,1759520252947311721,
0.11282777786254883,0.47225844860076904,0.5120698210726764,1759520252977325377,
-0.05821174383163452,0.3918648958206177,0.5187074082980399,1759520253007315516,
-0.16522639989852905,0.10770082473754883,0.49478125669803247,1759520253037634911,
-0.6368629932403564,-0.18254107236862183,0.487768813368668,1759520253067529035,
-0.0005022287368774414,0.31148338317871094,0.4706658284667349,1759520253098735575,
-0.02683347463607788,0.31734204292297363,0.49034852144686386,1759520253130580303,
-0.1253129243850708,0.2400226593017578,0.5938845577212916,1759520253157534649,
-0.05379074811935425,-0.0003873109817504883,0.5242551005912833,1759520253187519814,
-0.34587401151657104,-0.2387622594833374,0.5061858101186261,1759520253217510673,
-0.2692475914955139,-0.34407711029052734,0.5137693015993798,1759520253247585474,
0.08367007970809937,0.5858484506607056,0.552851982865524,1759520253277572855,
0.20135974884033203,0.7117922306060791,0.5638961338152005,1759520253307623103,
-0.055026888847351074,0.25326621532440186,0.5203724390970762,1759520253338731916,
0.4471696615219116,0.06593310832977295,0.4774862562986028,1759520253370139976,
-0.28959184885025024,-0.15071576833724976,0.5517991273200856,1759520253397764492,
-0.0703268051147461,0.4454877972602844,0.5261903445027555,1759520253427610622,
-0.1482830047607422,0.2449621558189392,0.4995673892694938,1759520253457640974,
-0.3032171130180359,-0.08921068906784058,0.5000318148112028,1759520253487706380,
0.5724594593048096,0.3851912021636963,0.5247382831857869,1759520253517828788,
-0.34000545740127563,0.31256353855133057,0.530980701886924,1759520253547724589,
-0.11018359661102295,-0.15051352977752686,0.4966750408124647,1759520253578936200,
-0.05623745918273926,0.11818784475326538,0.4654177091425884,1759520253610986739,
-0.11644637584686279,0.4479842185974121,0.5904264508468509,1759520253637854608,
-0.10096240043640137,0.5781532526016235,0.541293500913416,1759520253667824653,
-0.28442561626434326,0.10751450061798096,0.4412077533587712,1759520253691527329,
0.12855660915374756,-0.0163152813911438,0.5662478562058362,1759520253727881175,
-0.35466820001602173,0.06468123197555542,0.5059003811633652,1759520253756898845,
-0.1342012882232666,-0.02966231107711792,0.4932110212115829,1759520253786916963,
-0.04903632402420044,0.14865374565124512,0.49160990460270176,1759520253819430359,
-0.01670759916305542,0.5276612043380737,0.5219872982657003,1759520253849904985,
-0.17415732145309448,-0.014852762222290039,0.5493209919986916,1759520253877987343,
-0.45326751470565796,-0.05290859937667847,0.5043219038445824,1759520253907905447,
0.3721771836280823,0.2881431579589844,0.5176600984746393,1759520253937989636,
0.01682513952255249,0.8263587355613708,0.5100645626970942,1759520253968005511,
-0.09773290157318115,0.4457172155380249,0.5053198193269217,1759520253998020805,
0.06082582473754883,-0.21986114978790283,0.5130278577996448,1759520254028011632,
-0.49784421920776367,-0.2949698567390442,0.5045322451786561,1759520254058821489,
-0.04917079210281372,0.09877127408981323,0.48477769961632927,1759520254091148418,
0.014258086681365967,0.4361937642097473,0.5900181447209548,1759520254118150187,
-0.14499056339263916,0.08075040578842163,0.5323704654077356,1759520254148163582,
-0.07179111242294312,0.13131970167160034,0.5022772605487815,1759520254178154424,
-0.01627451181411743,0.006286680698394775,0.48452481134516834,1759520254208224031,
-0.35685020685195923,0.34569787979125977,0.4799700812509829,1759520254238225885,
0.23378628492355347,0.22643661499023438,0.5113799032183228,1759520254268260776,
-0.2863162159919739,0.20374184846878052,0.5183138377961596,1759520254298916617,
-0.31578588485717773,0.34589332342147827,0.48575560621923036,1759520254331199173,
0.23018038272857666,-0.1731138825416565,0.5676379407074956,1759520254358356962,
-0.3675747513771057,-0.012241780757904053,0.533304156263892,1759520254388550470,
0.16657745838165283,0.23818635940551758,0.521560970564027,1759520254418411390,
-0.2689412236213684,-0.049862802028656006,0.490442992131625,1759520254448379424,
-0.021936118602752686,0.2916991114616394,0.5114126941826935,1759520254478369104,
-0.0478053092956543,0.8564028739929199,0.5093209599997423,1759520254508428928,
-0.09354817867279053,0.3709726333618164,0.49014299768989156,1759520254539162442,
-0.42001742124557495,0.06080430746078491,0.4584823260646168,1759520254571265093,
0.3709222674369812,-0.10167688131332397,0.5697515519353874,1759520254598851023,
-0.2985081076622009,0.4086536169052124,0.5471407295441011,1759520254628461860,
-0.11122184991836548,0.289487361907959,0.5111132132776746,1759520254658442691,
-0.20365166664123535,-0.0761483907699585,0.489605210789091,1759520254688505245,
-0.40475189685821533,-0.16425514221191406,0.5035850210234765,1759520254718537134,
-0.0006591677665710449,0.170556902885437,0.5258872718940001,1759520254748571854,
-0.2811286449432373,0.29226934909820557,0.4953263592115985,1759520254779360883,
-0.12244457006454468,0.25255292654037476,0.48417329638780926,1759520254810817178,
0.18548107147216797,0.34784603118896484,0.5061043568161573,1759520254840713104,
-0.1673378348350525,0.018421590328216553,0.539005479572559,1759520254868662714,
-0.49157363176345825,0.13786184787750244,0.48925330288081176,1759520254898603736,
0.22189313173294067,0.28310292959213257,0.5053850092884645,1759520254928687689,
0.05405318737030029,0.37759530544281006,0.5208010560732106,1759520254958628349,
-0.429029643535614,0.11422902345657349,0.5080440605192315,1759520254988720680,
0.30064356327056885,-0.01848471164703369,0.5057562335728374,1759520255018976196,
-0.16722267866134644,-0.015078425407409668,0.4627172583362991,1759520255050952766,
0.1959770917892456,0.542056143283844,0.45780823221583045,1759520255080757014,
-0.3061825633049011,0.43375319242477417,0.4772850996111656,1759520255108794771,
-0.23933064937591553,0.11632943153381348,0.4754010396500782,1759520255138775658,
0.09281682968139648,0.24497592449188232,0.47719570552381835,1759520255160835713,
-0.17951053380966187,0.23699456453323364,0.5540909590358581,1759520255198827238,
-0.060267508029937744,0.19620418548583984,0.5204532833083243,1759520255228909986,
0.43409693241119385,0.060337066650390625,0.5360068742237398,1759520255258935194,
-0.04439830780029297,0.07087218761444092,0.4971728409632983,1759520255290132430,
-0.26558881998062134,0.4220677614212036,0.4627021258481911,1759520255321143874,
0.2154480218887329,-0.08086514472961426,0.4751010351044645,1759520255349061310,
-0.4779548645019531,-0.21482479572296143,0.4682729739675648,1759520255377982488,
0.420842707157135,0.3381960391998291,0.479304505950934,1759520255408027894,
-0.2874981164932251,0.1403738260269165,0.5289619572199366,1759520255437978477,
0.12645715475082397,0.542105495929718,0.5159196490344804,1759520255469059129,
0.344216525554657,0.5036481618881226,0.4940673826729185,1759520255499371682,
-0.003844320774078369,0.40123558044433594,0.4730612576275152,1759520255530126468,
-0.1772969365119934,-0.11289381980895996,0.4603870340816972,1759520255561820640,
-0.04846012592315674,-0.11654704809188843,0.5136831333436098,1759520255589203962,
-0.21898138523101807,0.2345876693725586,0.46639506764067934,1759520255619176396,
-0.20508170127868652,0.4267820119857788,0.46341597789821887,1759520255649149029,
-0.09134715795516968,0.10939407348632812,0.48894820631624375,1759520255679144983,
-0.3910306692123413,-0.025528430938720703,0.5123798632063695,1759520255709206887,
0.02956908941268921,0.3374063968658447,0.49787353403535106,1759520255739375456,
-0.036585986614227295,0.3222765326499939,0.4643056778426035,1759520255771304428,
-0.40769708156585693,0.198489248752594,0.49820545433306984,1759520255802229493,
0.24676132202148438,0.3397441506385803,0.5533435580186796,1759520255829352509,
-0.1934681534767151,0.10612422227859497,0.45948659731846286,1759520255859273371,
-0.15795284509658813,-0.03166985511779785,0.4644880519941474,1759520255889337229,
0.10710036754608154,0.011770486831665039,0.4833498004573918,1759520255919308961,
0.053194642066955566,0.5693191885948181,0.4827084728144988,1759520255949374067,
0.04641538858413696,0.10463923215866089,0.49597455429775716,1759520255979376120,
-0.08170628547668457,-0.1452508568763733,0.47238279537194067,1759520256010829817,
-0.16443562507629395,-0.1560148000717163,0.4718053804307241,1759520256042695982,
0.11278307437896729,0.622930109500885,0.5473721741203806,1759520256069480573,
-0.023504436016082764,0.5940045714378357,0.5040417412947977,1759520256099422276,
-0.37548476457595825,0.022759974002838135,0.47579368216879037,1759520256129697904,
0.5463768243789673,0.557569682598114,0.4607086655972388,1759520256159560327,
-0.029450833797454834,0.6640563011169434,0.4800413225901567,1759520256189505804,
-0.06696075201034546,0.5243675112724304,0.481356368832533,1759520256219527168,
0.19637811183929443,-0.13200831413269043,0.47804028903093204,1759520256251271804,
-0.0665162205696106,0.192335844039917,0.4883834673080525,1759520256282982611,
0.1581284999847412,0.24749130010604858,0.5525674936273979,1759520256309659952,
-0.15769106149673462,0.10833632946014404,0.47441566808965485,1759520256339621245,
0.08674079179763794,0.028665482997894287,0.4717094623221221,1759520256369654682,
-0.1915677785873413,0.4042051434516907,0.4419674969492124,1759520256399658400,
-0.40910589694976807,0.045641183853149414,0.4461706688670787,1759520256429687535,
-0.1474062204360962,0.15745192766189575,0.47331658752036593,1759520256459754753,
0.2365339994430542,0.9063377380371094,0.46108697451363395,1759520256491252437,
-0.12256985902786255,0.39438390731811523,0.4812900409296055,1759520256522727602,
-0.4819411635398865,0.04768168926239014,0.542723465332561,1759520256549839943,
0.33446627855300903,-0.2059117555618286,0.4933455165628564,1759520256579729855,
-0.30770933628082275,0.3664255142211914,0.512036052005553,1759520256609797177,
0.08043503761291504,0.5172114968299866,0.5098593050418352,1759520256639816430,
-0.14081114530563354,0.04758310317993164,0.4803982883359875,1759520256669803852,
0.19246476888656616,-0.1470748782157898,0.4809748892168652,1759520256699825129,
-0.19044697284698486,-0.07220607995986938,0.468408140356424,1759520256730900147,
-0.1866971254348755,0.3442155718803406,0.43277842875213457,1759520256763434622,
-0.01369178295135498,0.3381000757217407,0.5488815319845601,1759520256789993179,
0.2250317931175232,0.44460463523864746,0.4842706327130597,1759520256819906851,
-0.10868215560913086,-0.013042151927947998,0.4907487450512935,1759520256849976528,
-0.6314790844917297,0.14158809185028076,0.4748704463215176,1759520256880056140,
0.3711879253387451,0.21208792924880981,0.4893382004445215,1759520256909988494,
-0.16574949026107788,0.40875089168548584,0.49088019380121817,1759520256939140450,
-0.09459441900253296,0.33333277702331543,0.44611493849632056,1759520256970929997,
0.23907196521759033,-0.2279457449913025,0.4421361184435708,1759520257002993768,
0.22137564420700073,0.39356422424316406,0.5224046384646099,1759520257030325388,
0.07864785194396973,0.29575860500335693,0.5038294677765482,1759520257058111149,
-0.30369263887405396,-0.18184047937393188,0.42538528977504103,1759520257090072296,
-0.03257471323013306,-0.29620522260665894,0.4665331919736915,1759520257119138185,
0.07950907945632935,0.6472100615501404,0.48734820619624464,1759520257148108021,
0.12319707870483398,0.5817617774009705,0.4493902769216108,1759520257180162245,
-0.4495924711227417,0.2067960500717163,0.4395772958610446,1759520257211322679,
0.29679685831069946,0.15924620628356934,0.4496671041885526,1759520257242762084,
-0.3831477165222168,0.15949630737304688,0.5450110669311558,1759520257270255595,
0.11009615659713745,0.5298604369163513,0.48232799258986636,1759520257300230273,
-0.1933382749557495,0.12343084812164307,0.474447320665671,1759520257330266266,
-0.2021602988243103,-0.07269328832626343,0.5009344728914844,1759520257360338298,
0.4586986303329468,0.1453559398651123,0.4947573129699152,1759520257390326660,
-0.4363631010055542,-0.014291167259216309,0.4582652250414892,1759520257420310562,
0.11413604021072388,0.20123064517974854,0.4504024388705642,1759520257451185686,
0.06968635320663452,0.4816931486129761,0.4131167913115677,1759520257482788000,
-0.29308438301086426,0.5256865620613098,0.47678387570693925,1759520257510444188,
-0.2207128405570984,0.03470718860626221,0.43906335544272046,1759520257540418177,
0.16223973035812378,-0.024494647979736328,0.45710800683143227,1759520257570431902,
-0.1271829605102539,0.3410000205039978,0.48833660005975843,1759520257600475461,
-0.2575281858444214,0.6234530210494995,0.48288694769569357,1759520257630483200,
0.4858323335647583,0.31793737411499023,0.45239268612651284,1759520257660502884,
-0.2520032525062561,0.021542131900787354,0.46917967689171325,1759520257690140968,
-0.014654994010925293,0.06430202722549438,0.4358620974293869,1759520257723192192,
-0.40150368213653564,-0.02442944049835205,0.5047270302600548,1759520257750589076,
-0.11626160144805908,0.13577282428741455,0.47923526022185503,1759520257780566004,
0.30188846588134766,0.40341562032699585,0.4607767768754985,1759520257810562554,
0.06565135717391968,0.33225804567337036,0.43633407603626695,1759520257840718093,
-0.29018527269363403,-0.10918116569519043,0.45145521878406975,1759520257871357940,
0.17715078592300415,0.4237058758735657,0.47239920159798876,1759520257901540888,
-0.028510630130767822,0.04429614543914795,0.44426582909550927,1759520257931391934,
-0.37571895122528076,-0.20342087745666504,0.41198935542330245,1759520257962782778,
0.3488125205039978,0.09279882907867432,0.47569313977294336,1759520257990817513,
-0.3130035996437073,0.48912352323532104,0.43872684287365254,1759520258021456998,
0.18307828903198242,0.724575400352478,0.4527072833032245,1759520258051312621,
-0.03769475221633911,0.0038902759552001953,0.4531576207393516,1759520258081553890,
0.19430017471313477,-0.15977269411087036,0.46622425966966596,1759520258111349404,
-0.08157658576965332,0.07799315452575684,0.4566963257828091,1759520258141401749,
-0.5939546227455139,0.25216931104660034,0.46409642487822,1759520258171373630,
0.37511932849884033,0.11330950260162354,0.46255125903274963,1759520258202939788,
-0.2956516742706299,0.13669532537460327,0.4889941090027933,1759520258232988532,
-0.15035676956176758,0.13480061292648315,0.5066425509257162,1759520258261457808,
-0.15902745723724365,0.06940734386444092,0.4598637045695333,1759520258291421630,
0.16170895099639893,0.4548012614250183,0.43943059901606346,1759520258321531816,
0.026464521884918213,0.2994736433029175,0.4578017828823431,1759520258351410611,
-0.24722272157669067,0.38381868600845337,0.4242974829829731,1759520258381522132,
0.26348501443862915,-0.10617268085479736,0.42402925825116583,1759520258411501808,
-0.363500714302063,-0.27370744943618774,0.4314319445584833,1759520258442832286,
0.2506254315376282,0.4281322956085205,0.43301598909443334,1759520258473592681,
-0.154188334941864,0.6002607941627502,0.4585857538759587,1759520258501579085,
0.29578161239624023,-0.010365545749664307,0.4564300364364968,1759520258531524716,
-0.04319953918457031,-0.19068706035614014,0.4545021058430566,1759520258561545464,
-0.37282460927963257,0.2288687825202942,0.4350681101497979,1759520258591517268,
0.35704344511032104,-0.11879593133926392,0.44280407564020363,1759520258621484353,
0.19425207376480103,0.5492001175880432,0.45400767478738013,1759520258651515390,
0.1338348388671875,0.46660226583480835,0.4302129864725617,1759520258683478481,
0.04921454191207886,0.189599871635437,0.44348604981539225,1759520258714057684,
0.2156028151512146,0.27954375743865967,0.48711981418369166,1759520258741589964,
-0.291492223739624,0.018707275390625,0.47570314875434533,1759520258771626598,
0.26296424865722656,0.5167685747146606,0.4656995380632279,1759520258801805723,
-0.2639731168746948,-0.08440285921096802,0.43253062872824677,1759520258831678629,
0.03213530778884888,-0.04057586193084717,0.4640823411529898,1759520258861601115,
0.10800677537918091,0.35797858238220215,0.45084656876085105,1759520258891565943,
0.2878376245498657,0.3584442734718323,0.4027404372733126,1759520258923022840,
-0.2186834216117859,-0.11881381273269653,0.4237286366668154,1759520258954505139,
-0.10917937755584717,-0.24938040971755981,0.4868911890699816,1759520258981727565,
-0.293489933013916,-0.03447532653808594,0.43468312634614087,1759520259011545020,
-0.4515887498855591,0.34442633390426636,0.42014043467024453,1759520259041717158,
0.2034817337989807,0.12584316730499268,0.4389543878587881,1759520259071689053,
-0.21798014640808105,0.2642049193382263,0.4381000312421684,1759520259101655289,
-0.20480221509933472,0.06746512651443481,0.43103743371682535,1759520259131677752,
-0.40883225202560425,-0.1475422978401184,0.4349896930586042,1759520259163150750,
0.04294687509536743,0.16535675525665283,0.43483543941572333,1759520259194851751,
0.04555600881576538,0.6338908076286316,0.48096071995095907,1759520259221816396,
-0.3118910789489746,0.25634443759918213,0.42895133129710095,1759520259251702969,
-0.3953244090080261,0.09652864933013916,0.4378223753942887,1759520259281763985,
-0.12967079877853394,0.31934499740600586,0.44452143574594144,1759520259311757981,
-0.14185768365859985,0.24794209003448486,0.4538993111164247,1759520259342077731,
-0.45712071657180786,0.0024913549423217773,0.45205378904429927,1759520259371820239,
0.2670876383781433,0.3818793296813965,0.42709956988798975,1759520259403199956,
-0.16403204202651978,-0.24022716283798218,0.4186044994222209,1759520259434889103,
-0.32228219509124756,0.051711082458496094,0.48074711014039195,1759520259461873050,
0.16446751356124878,0.07095855474472046,0.4626432488596629,1759520259491778986,
0.24072033166885376,0.3863667845726013,0.4977656579368079,1759520259521749914,
-0.10658091306686401,0.5553150177001953,0.4587979821039405,1759520259551837908,
-0.09959888458251953,0.23429018259048462,0.45780748412507044,1759520259581813396,
0.19958072900772095,-0.11693370342254639,0.4731425598438776,1759520259611862051,
0.5018063187599182,0.24520623683929443,0.4146667175859526,1759520259643342225,
-0.006211042404174805,0.22089242935180664,0.376296483078205,1759520259675495711,
-0.1101275086402893,-0.11467117071151733,0.4832976583670175,1759520259701946886,
0.022826790809631348,0.24290543794631958,0.46570578366851534,1759520259732034205,
-0.2730395197868347,0.2590246796607971,0.46250880678008627,1759520259761931543,
-0.2083224058151245,0.47820794582366943,0.4308451986017785,1759520259791892750,
0.6322253942489624,-0.26725679636001587,0.4227790669472969,1759520259821873323,
-0.46154534816741943,-0.24891269207000732,0.4473373283948613,1759520259851938200,
0.2698611617088318,0.3261202573776245,0.403447221841202,1759520259882964821,
-0.02188009023666382,-0.0032921433448791504,0.36056201197805227,1759520259915161529,
-0.23340117931365967,0.2184777855873108,0.47662815155065813,1759520259942078800,
-0.17238008975982666,0.17586398124694824,0.4422245304135442,1759520259972004976,
-0.5001435279846191,-0.14981281757354736,0.4275422453388031,1759520260002035460,
0.2969570755958557,-0.1761457324028015,0.45717568095800026,1759520260032080622,
-0.0911870002746582,0.1176297664642334,0.47527588410240973,1759520260062080928,
-0.1677609086036682,0.6653057932853699,0.47236290483064425,1759520260091190936,
-0.1748766303062439,0.2650579810142517,0.4077562934705913,1759520260122948621,
-0.06880277395248413,-0.16517597436904907,0.407444864983865,1759520260155602114,
-0.446525514125824,0.01147758960723877,0.47932729820858516,1759520260182314579,
-0.23661774396896362,0.28428661823272705,0.40928985524117023,1759520260212235072,
0.25019919872283936,0.00857764482498169,0.409147445571786,1759520260242206970,
-0.2880588173866272,0.13066726922988892,0.4194962355038851,1759520260272284661,
0.41700494289398193,0.31071728467941284,0.4103414639800634,1759520260302243116,
-0.18579375743865967,-0.24534177780151367,0.45803612455747444,1759520260331303180,
0.37452763319015503,-0.19712108373641968,0.44615899647529267,1759520260362144459,
0.02945035696029663,0.6416954398155212,0.3835055059625328,1759520260395342242,
0.053014934062957764,0.2676180601119995,0.4651674155527158,1759520260422388725,
0.025329291820526123,-0.3512287735939026,0.4196331945535437,1759520260452357997,
0.12170237302780151,-0.07855021953582764,0.4307089781739635,1759520260482371528,
0.07201939821243286,0.10472005605697632,0.4095970013878666,1759520260512471953,
0.133719801902771,-0.011477112770080566,0.4071095972301282,1759520260542641607,
-0.2557675242424011,-0.21479368209838867,0.45037937558422275,1759520260572527258,
-0.07238328456878662,0.2599162459373474,0.4241914322635339,1759520260603348405,
0.3026740550994873,0.5792375206947327,0.39370447641493134,1759520260634907053,
-0.23006361722946167,0.4275950789451599,0.47195567345170925,1759520260662577651,
-0.13769745826721191,0.02912193536758423,0.4628732303841018,1759520260692496947,
-0.03723788261413574,0.4500613808631897,0.42850589290497376,1759520260722478310,
-0.3152608275413513,0.04297596216201782,0.39548686384722914,1759520260752542373,
0.19863104820251465,0.07886052131652832,0.42469917588238726,1759520260782527959,
0.2278834581375122,0.2977249026298523,0.4225200401594898,1759520260812555476,
-0.14476662874221802,0.06177705526351929,0.4180918213781557,1759520260842949922,
0.3873557448387146,0.1194617748260498,0.4170981486551308,1759520260874944471,
-0.07470989227294922,0.005750894546508789,0.4779432842704794,1759520260902691703,
0.0788378119468689,0.46199697256088257,0.41316726148780375,1759520260932668179,
0.22509944438934326,0.24441325664520264,0.4069734332550139,1759520260962704343,
-0.250121533870697,0.017190396785736084,0.4261800352569414,1759520260992746552,
0.10215729475021362,-0.056567490100860596,0.42850742475670567,1759520261022725717,
-0.1770455241203308,0.03895813226699829,0.4266523744379089,1759520261052869489,
0.07934951782226562,0.07959842681884766,0.4344605129316269,1759520261082931552,
0.29642778635025024,0.5943132042884827,0.4233776178534077,1759520261115377508,
0.16241103410720825,0.41726136207580566,0.5088244438785717,1759520261142842211,
0.2388443946838379,-0.29761165380477905,0.450094188438376,1759520261172802854,
-0.28513532876968384,0.04313087463378906,0.4336098705208799,1759520261202798353,
0.06743240356445312,0.28736186027526855,0.45579448939996964,1759520261232841460,
-0.40702366828918457,0.36111265420913696,0.4457360840976697,1759520261262842291,
0.15498733520507812,-0.011303722858428955,0.40898319168654756,1759520261292874830,
-0.1883602738380432,-0.3796161413192749,0.4158724874355676,1759520261323257843,
-0.28630828857421875,-0.10552382469177246,0.4288096531211651,1759520261355015836,
0.28643298149108887,0.5643196105957031,0.44846728104556893,1759520261385043422,
0.05239039659500122,-0.4099019169807434,0.5104592621497778,1759520261413279634,
-0.006594479084014893,0.14318180084228516,0.4673884119538833,1759520261443149097,
0.27890169620513916,0.31330472230911255,0.4414945416600805,1759520261473006090,
-0.006166577339172363,0.1471080183982849,0.43975851304834,1759520261503030260,
0.32791125774383545,-0.051902830600738525,0.43917609397183544,1759520261533049203,
-0.08986181020736694,0.18395191431045532,0.42088602416466236,1759520261563442578,
-0.29140186309814453,-0.08649158477783203,0.3816646522000349,1759520261595368608,
0.39259326457977295,0.5059846043586731,0.44470639261956785,1759520261624140598,
-0.3864288330078125,-0.10636872053146362,0.48028789246398407,1759520261663154147,
-0.3409784436225891,0.019961297512054443,0.43091204301249236,1759520261693154790,
0.20963990688323975,-0.22454321384429932,0.4305222085082736,1759520261723225212,
-0.25634509325027466,0.09557712078094482,0.4564742073838063,1759520261755440664,
-0.18954885005950928,0.45941615104675293,0.456015479494249,1759520261785783451,
0.12544232606887817,0.040353596210479736,0.456980034219269,1759520261823222632,
0.2514263987541199,0.3786162734031677,0.43057890779394103,1759520261853239926,
0.46293026208877563,0.16548705101013184,0.4367177187922209,1759520261883884657,
0.08956754207611084,0.1340981125831604,0.4457640695090675,1759520261915040583,
0.43463289737701416,0.2716452479362488,0.45524909172538514,1759520261946165153,
-0.10109150409698486,-0.371069073677063,0.504393978275269,1759520261983346435,
-0.20546209812164307,0.1532641053199768,0.44015537341282557,1759520262013388408,
-0.07830721139907837,-0.17733824253082275,0.43488174709789645,1759520262043578945,
-0.23926055431365967,0.3938767910003662,0.4197209786588173,1759520262075440971,
-0.3581264615058899,0.309587299823761,0.41255661770433905,1759520262105908781,
-0.04040718078613281,0.3000119924545288,0.4828156245317652,1759520262133623498,
-0.028014779090881348,-0.044159650802612305,0.46854942153190027,1759520262163545521,
-0.22636306285858154,0.12673074007034302,0.4473537234359031,1759520262193832641,
-0.025969743728637695,0.4234964847564697,0.4258934355017851,1759520262223721631,
-0.2978000044822693,-0.034772276878356934,0.4275686766900968,1759520262253868902,
0.5150278210639954,0.18593144416809082,0.44737450518976185,1759520262283622255,
0.1571102738380432,0.18523317575454712,0.422903030073852,1759520262314993183,
0.0392688512802124,0.40140730142593384,0.41142439135899833,1759520262346260419,
0.22627341747283936,-0.3146003484725952,0.47133134225122264,1759520262373648593,
-0.2973698377609253,-0.09650927782058716,0.45413737790686204,1759520262403602115,
0.2933918237686157,0.156053364276886,0.435552241004337,1759520262433617124,
-0.08283072710037231,0.3112732768058777,0.4394173906897679,1759520262463700516,
-0.018851161003112793,0.13452839851379395,0.4660775169715551,1759520262493721334,
-0.06382083892822266,0.07910525798797607,0.45013339312802453,1759520262523976119,
-0.12312197685241699,-0.22242611646652222,0.4373072751446676,1759520262555505845,
0.09952706098556519,0.13266229629516602,0.4327833857858789,1759520262587452404,
-0.2693333625793457,0.0042871832847595215,0.47006809696891655,1759520262623819300,
-1.5511661767959595,-0.2493588924407959,0.4084918409956194,1759520262653829575,
0.1049278974533081,-0.14396148920059204,0.37981026192045825,1759520262683843248,
0.025008559226989746,-0.28570497035980225,0.3492199435966844,1759520262715687378,
1.7930567264556885,0.49971485137939453,0.38996979513184743,1759520262747042437,
0.9346000552177429,0.3933284282684326,0.4278291406137801,1759520262783869896,
0.303608775138855,-0.2059275507926941,0.353679543585762,1759520262813880783,
-0.15702110528945923,-0.1329934000968933,0.3514586244115155,1759520262843919040,
-0.3702539801597595,0.8132057785987854,0.32208913799824407,1759520262875073036,
0.222153902053833,0.11508691310882568,0.320940384626832,1759520262907492477,
-0.5571731328964233,0.1463099718093872,0.44859006608503044,1759520262943996210,
0.4373095631599426,0.3841548562049866,0.4503017998129124,1759520262974228762,
-0.14695101976394653,0.4687177538871765,0.44073811795691675,1759520263004059244,
0.11918377876281738,0.6875545978546143,0.44695747996686125,1759520263035505348,
-0.011622309684753418,-0.20400547981262207,0.4479981033631408,1759520263067042677,
-0.6713148355484009,0.11054056882858276,0.46250170470814306,1759520263094172062,
-0.6907802820205688,0.2877974510192871,0.4370969516832291,1759520263123114224,
-1.0931576490402222,0.3111475110054016,0.41232360158526105,1759520263154211891,
-0.5410850048065186,-0.06134885549545288,0.3569612806716014,1759520263184328338,
0.2993239760398865,-0.17292851209640503,0.35287809757883953,1759520263214189000,
1.198121190071106,-0.13428205251693726,0.40683201166086735,1759520263244230127,
0.3292536735534668,-0.3805024027824402,0.36474456465623245,1759520263275593364,
0.5389010906219482,0.2096235752105713,0.30059779536334197,1759520263307406836,
0.023415088653564453,-0.05007898807525635,0.4026068935915177,1759520263334274329,
-0.17251914739608765,0.11035209894180298,0.4093563697284169,1759520263364229713,
-0.607448160648346,0.2023659348487854,0.34092956610580477,1759520263387562669,
0.3705470561981201,0.19921112060546875,0.46567819291848456,1759520263414308648,
-0.520240306854248,0.0914728045463562,0.41456573714850736,1759520263444259346,
-0.26162612438201904,0.40386873483657837,0.4165521372424786,1759520263474341472,
-0.1371520757675171,-0.2839219570159912,0.40381193752639605,1759520263504372446,
-0.09040659666061401,0.23629248142242432,0.4228453365469426,1759520263534351340,
0.2766761779785156,0.12262606620788574,0.4935021700844744,1759520263563417869,
0.24758034944534302,0.5795992016792297,0.4748535387679126,1759520263594052346,
-0.19570285081863403,0.20640850067138672,0.3851733471708684,1759520263627173762,
-0.5513977408409119,0.041275858879089355,0.4294359238775815,1759520263654497361,
0.13332229852676392,-0.36336416006088257,0.4285040977074727,1759520263684554148,
-0.5494689345359802,0.5935547947883606,0.41874046819455557,1759520263714482526,
-0.05745476484298706,0.2738450765609741,0.41362742213651116,1759520263744550144,
-0.679538369178772,0.062113285064697266,0.42407462239036214,1759520263774554192,
0.14333772659301758,0.28932470083236694,0.4477647646666952,1759520263804531667,
-0.30486369132995605,-0.27307403087615967,0.42530436757930623,1759520263835335043,
-0.3365474343299866,0.32920897006988525,0.40992079473369764,1759520263867505003,
0.4183993339538574,0.00578385591506958,0.5155347478475539,1759520263894645841,
0.05767899751663208,0.15512925386428833,0.4538385874651077,1759520263924602884,
-0.16917169094085693,0.04842948913574219,0.4320881508797365,1759520263954641542,
0.2865646481513977,-0.1487303376197815,0.4415598501756497,1759520263984721622,
-0.06646221876144409,0.19292974472045898,0.44271190657875015,1759520264014703125,
-0.029985249042510986,0.5799496173858643,0.4194212950772966,1759520264044793671,
-0.1405848264694214,-0.1817702054977417,0.41687734986692904,1759520264075101870,
-0.05862551927566528,0.4261021614074707,0.39865637810798993,1759520264107101305,
0.2874225378036499,0.47300630807876587,0.469341718450682,1759520264134869939,
-0.6019501090049744,0.20095723867416382,0.42879539637921094,1759520264164791222,
-0.050579965114593506,0.20812183618545532,0.3760973005823471,1759520264187547751,
-0.3805456757545471,0.2498418092727661,0.491251517562195,1759520264224868193,
-0.36943769454956055,0.6709068417549133,0.44623748888149267,1759520264254859570,
0.14476370811462402,0.24216395616531372,0.42335443616022617,1759520264284887977,
-0.09355121850967407,-0.01624441146850586,0.4014202433326751,1759520264315801991,
-0.1689041256904602,-0.022896647453308105,0.41495583422711474,1759520264347467346,
0.09829270839691162,0.4300176501274109,0.4637865094785507,1759520264375005223,
0.009455859661102295,0.31333303451538086,0.4490579770165262,1759520264404929719,
-0.1423904299736023,0.1797325611114502,0.4407421922176493,1759520264434946846,
-0.042706310749053955,0.28468310832977295,0.4175085483252953,1759520264464974585,
-0.35737723112106323,-0.44070398807525635,0.4084800729542252,1759520264495018050,
0.44738131761550903,0.10714477300643921,0.42467265010324284,1759520264525033900,
0.14907360076904297,0.1830095648765564,0.4274557859645459,1759520264554116927,
-0.08657705783843994,0.4333098530769348,0.38092796990277694,1759520264587081169,
0.19235146045684814,-0.1724454164505005,0.44956127088532294,1759520264615149612,
-0.37503260374069214,-0.05076354742050171,0.4326439961036177,1759520264645099364,
-0.16775596141815186,0.024198710918426514,0.4318835074924151,1759520264675152290,
-0.027328789234161377,0.35102778673171997,0.4347923814975938,1759520264704136456,
0.01752549409866333,0.08163416385650635,0.4025672948595677,1759520264735189375,
-0.1353549361228943,0.10834050178527832,0.4199768716827268,1759520264765268788,
-0.018627524375915527,0.1353093981742859,0.3856143396192679,1759520264795327710,
-0.12520432472229004,-0.16734957695007324,0.38019585350276913,1759520264827562902,
0.1005050539970398,0.3868876099586487,0.4682664215169671,1759520264855292899,
0.251997172832489,0.3378691077232361,0.4303681413563117,1759520264885265368,
-0.549095094203949,0.13972514867782593,0.4198868874438456,1759520264915338509,
0.5397034883499146,0.5027127265930176,0.4526725641947636,1759520264944472806,
-0.027506649494171143,0.5956564545631409,0.41500462855766557,1759520264975330435,
-0.06840038299560547,0.05690014362335205,0.4126085129705079,1759520265005326310,
-0.29254740476608276,0.04732060432434082,0.42548825085660597,1759520265035409059,
0.0750044584274292,0.2110964059829712,0.42655272238486763,1759520265067421155,
-0.10131865739822388,0.6469211578369141,0.46920577829164417,1759520265095492148,
0.2728971242904663,0.21422159671783447,0.3953202754688869,1759520265125710880,
0.0021530985832214355,-0.17258524894714355,0.40078143503087366,1759520265155445409,
0.019628703594207764,-0.2072407603263855,0.43658713796213805,1759520265185518895,
0.0027236342430114746,0.23373842239379883,0.4427447663268903,1759520265215787552,
-0.2718992829322815,-0.12226366996765137,0.4434217511370896,1759520265245526529,
0.409906804561615,0.3722137212753296,0.43107882282645965,1759520265275623313,
-0.6055987477302551,-0.2507026791572571,0.40322083737879827,1759520265307310060,
-0.05479651689529419,-0.02604997158050537,0.4211400515965656,1759520265337599712,
0.07008039951324463,0.15197616815567017,0.40019351609811676,1759520265375602708,
-0.1560659408569336,-0.2174174189567566,0.396535847468706,1759520265405598366,
-0.3530538082122803,-0.17950844764709473,0.3983207881010075,1759520265435655950,
0.23740464448928833,0.15176361799240112,0.39146943097724723,1759520265467603896,
-0.24375206232070923,0.4793173670768738,0.4374858518283866,1759520265497661632,
0.07491868734359741,0.36618852615356445,0.45015015451800966,1759520265525674982,
-0.11498677730560303,-0.42777925729751587,0.4190235693692221,1759520265555686693,
0.27640408277511597,-0.44694042205810547,0.4538898318341682,1759520265585729723,
0.3289642930030823,0.7332743406295776,0.4290108753565318,1759520265615797344,
-0.17356008291244507,0.4484236240386963,0.381080513430137,1759520265645791619,
0.2124696969985962,0.19495177268981934,0.4045818616095787,1759520265675858541,
-0.020252108573913574,0.13985282182693481,0.40303073713592213,1759520265707192616,
-0.2047938108444214,0.3511236310005188,0.4281211768031121,1759520265738616796,
0.06428509950637817,0.4766014814376831,0.502353692775469,1759520265765887504,
0.4646272659301758,0.23119288682937622,0.4387142830201755,1759520265795944158,
-0.43518972396850586,0.21546614170074463,0.41249691268217037,1759520265826350354,
-0.024240434169769287,0.5535086393356323,0.40181645145402456,1759520265855966736,
0.10844624042510986,0.1626741886138916,0.3842999779304412,1759520265885944046,
-0.3002582788467407,0.20114731788635254,0.3583943873641784,1759520265915988554,
0.05904340744018555,-0.3755805492401123,0.3386536770494136,1759520265947225115,
-0.030225932598114014,-0.205430269241333,0.38625867390520996,1759520265978969549,
0.4895625710487366,0.43308568000793457,0.5100756689446405,1759520266005983134,
-0.0921485424041748,0.30487972497940063,0.4475753170617015,1759520266036002296,
-0.1725980043411255,-0.07230532169342041,0.43080382283616714,1759520266066024832,
0.0009717345237731934,-0.5901294946670532,0.4228345091323579,1759520266096765334,
-0.15139633417129517,0.1670268177986145,0.4185296682361421,1759520266126789101,
0.013493001461029053,-0.03837686777114868,0.4072233145461744,1759520266156782322,
0.2227270007133484,-0.04768639802932739,0.38976018607062946,1759520266187441728,
-0.0013152360916137695,0.11526739597320557,0.3929585028534364,1759520266219904167,
-0.37048548460006714,0.12744057178497314,0.480382027342273,1759520266246247883,
0.3469961881637573,-0.10629397630691528,0.4074776426577886,1759520266276199681,
-0.3372092843055725,0.1214836835861206,0.4050775140753158,1759520266306206884,
-0.06621599197387695,0.3653159737586975,0.4197252263061229,1759520266336255733,
-0.09957969188690186,0.3496771454811096,0.42054635011985203,1759520266366270300,
-0.08913612365722656,-0.1402517557144165,0.4237485645848277,1759520266396276004,
-0.2824499011039734,-0.11174654960632324,0.39715174767312617,1759520266427498623,
0.24730366468429565,0.6936091780662537,0.37947487920065287,1759520266459499137,
-0.09277790784835815,0.36572957038879395,0.4459243726421945,1759520266486316313,
0.17132723331451416,-0.01986926794052124,0.39668522765774683,1759520266516327116,
-0.09432172775268555,0.18082404136657715,0.4258573523505249,1759520266546342664,
-0.23726481199264526,0.0347059965133667,0.4410710165353248,1759520266576401252,
0.4689570665359497,0.31217050552368164,0.4200142309282227,1759520266606419398,
-0.2833477854728699,0.21872949600219727,0.4036574509020924,1759520266636433812,
0.08001708984375,0.21246880292892456,0.39983945556271894,1759520266667602650,
-0.4497799873352051,0.3129689693450928,0.3851978558215395,1759520266699516982,
0.0871092677116394,0.026835620403289795,0.4610304816657299,1759520266726577855,
0.14832383394241333,0.36925673484802246,0.42939188984418614,1759520266755564731,
-0.2238321304321289,-0.1457446813583374,0.40464907559931185,1759520266786566925,
-0.10228955745697021,-0.32395249605178833,0.4399666693747905,1759520266815610703,
0.24153906106948853,0.6386716365814209,0.4128626844918226,1759520266845582118,
-0.20529216527938843,0.139320969581604,0.3960428011081095,1759520266876584403,
0.026796817779541016,0.0256805419921875,0.41105430327173464,1759520266907258390,
-0.3730873465538025,-0.3442174196243286,0.38603943426829745,1759520266939518521,
0.14543277025222778,0.19776904582977295,0.4475139636584221,1759520266966680226,
0.10389113426208496,0.2629489302635193,0.4087378200656893,1759520266996653693,
0.1435369849205017,0.2549038529396057,0.4234913512148195,1759520267026676016,
0.11394459009170532,-0.17907243967056274,0.4156580173959805,1759520267056731043,
-0.09584778547286987,0.01933121681213379,0.42876063618468385,1759520267086717700,
0.12792092561721802,0.11315715312957764,0.4395923610159529,1759520267116768023,
0.310560405254364,0.1260201334953308,0.4077058177207561,1759520267147603911,
0.19461458921432495,0.3991578221321106,0.35500013667712577,1759520267179864178,
0.23963159322738647,-0.0958181619644165,0.4489053914898421,1759520267206874507,
-0.4234216809272766,0.06173819303512573,0.40344271534698173,1759520267236823644,
0.3877025246620178,0.4653271436691284,0.38916787945160203,1759520267266881091,
0.12585079669952393,0.18042349815368652,0.3627060704709786,1759520267296910855,
-0.3037112355232239,0.21224838495254517,0.3681102532596962,1759520267326932615,
-0.018299102783203125,-0.13974499702453613,0.4238359924841058,1759520267357250486,
-0.31339919567108154,0.13903111219406128,0.43246341237337566,1759520267387305516,
-0.3430498242378235,0.2549107074737549,0.3818340866956987,1759520267419704414,
0.07677370309829712,0.2785061001777649,0.4780144243074788,1759520267447015581,
-0.26256227493286133,0.21654576063156128,0.44874003051306954,1759520267476968367,
-0.2604416608810425,0.12815815210342407,0.4251820208799638,1759520267507004582,
-0.02859783172607422,-0.32885807752609253,0.4356533711431363,1759520267537019118,
0.04941076040267944,0.3503286838531494,0.41854220583215523,1759520267566136215,
0.04959529638290405,0.14208853244781494,0.36605334979959153,1759520267596121365,
-0.2590690851211548,-0.10835623741149902,0.3692476806793146,1759520267627761279,
-0.06878095865249634,0.24565690755844116,0.39285998145061934,1759520267659409208,
-0.1234520673751831,0.4002201557159424,0.44823323016637046,1759520267687194117,
-0.5340695381164551,-0.048190295696258545,0.41761390301019796,1759520267717152286,
0.14795583486557007,-0.18871498107910156,0.4115568822839146,1759520267747198248,
-0.06633222103118896,-0.2095261812210083,0.4058683114297392,1759520267777176324,
-0.3116593360900879,0.3601459264755249,0.3946613592924871,1759520267807201663,
0.3770732283592224,0.22959023714065552,0.3945239084230926,1759520267837250432,
-0.20388782024383545,-0.12221628427505493,0.40147148190911197,1759520267867561062,
-0.3873765468597412,0.004478931427001953,0.3847641314838808,1759520267899510573,
-0.4549258351325989,0.005298912525177002,0.4321537126416802,1759520267927354478,
-0.21054714918136597,0.2366170883178711,0.41284160793083324,1759520267957330543,
0.0008311271667480469,0.6531078219413757,0.4191945625432287,1759520267987355597,
-0.17579996585845947,-0.08222848176956177,0.4208273932568933,1759520268017299099,
-0.08901172876358032,-0.20521527528762817,0.4051814345314189,1759520268047365454,
0.2400798797607422,0.11752873659133911,0.3971645316049772,1759520268077394939,
0.033963561058044434,0.7313739657402039,0.37808196110165426,1759520268107818721,
0.11350756883621216,0.34869199991226196,0.375933295397741,1759520268139809454,
0.26460522413253784,0.31626951694488525,0.4170447195734064,1759520268169621361,
0.17186790704727173,-0.09995836019515991,0.4515233752286858,1759520268197447645,
-0.1989871859550476,0.6567636728286743,0.4100406736439529,1759520268227480382,
0.1692846417427063,0.65529465675354,0.39976741261143406,1759520268257512299,
-0.23690980672836304,-0.01792466640472412,0.4040136564551135,1759520268287523196,
-0.017870664596557617,0.47647714614868164,0.4106458484140094,1759520268317588407,
-0.21703720092773438,-0.0029293298721313477,0.41094646473227836,1759520268347644998,
-0.08168166875839233,0.2356177568435669,0.4102851636054905,1759520268379776623,
0.3790140151977539,0.42095500230789185,0.4169710673258716,1759520268409893946,
-0.3394129276275635,0.11956143379211426,0.4368155352465222,1759520268446671479,
-0.006819427013397217,-0.0049141645431518555,0.3790533273939019,1759520268477810151,
-0.044669508934020996,0.22637653350830078,0.38790393956521224,1759520268506671895,
-0.2545543909072876,-0.04907423257827759,0.33991259582912914,1759520268539733909,
-0.101268470287323,0.14857208728790283,0.4083200878889345,1759520268567757256,
0.24792397022247314,0.6411682963371277,0.4094870075256351,1759520268597794995,
-0.35057878494262695,0.5006288886070251,0.4040932835855317,1759520268627706402,
0.09567022323608398,0.267339289188385,0.3843611071114374,1759520268657765791,
-0.475402295589447,-0.08039045333862305,0.41619265310106274,1759520268687800013,
-0.25171810388565063,0.7430762052536011,0.4306646601230153,1759520268717818674,
-0.1464468240737915,0.5293498039245605,0.41769597467603903,1759520268747872344,
-0.32483845949172974,0.09553647041320801,0.41532416640715547,1759520268779854771,
0.09265023469924927,-0.023404061794281006,0.42359701139740136,1759520268810594303,
-0.09781479835510254,0.42608141899108887,0.40978300660344474,1759520268837967454,
0.027348816394805908,0.12173289060592651,0.370715570299556,1759520268867924715,
-0.19315266609191895,-0.09211397171020508,0.32036322938367084,1759520268891229435,
-0.021469533443450928,0.15673041343688965,0.4078064382051008,1759520268927961727,
-0.19761312007904053,0.22306478023529053,0.3759383410184591,1759520268957994726,
0.3349077105522156,-0.07322794198989868,0.4170878004620184,1759520268988058343,
-0.13180291652679443,0.3428993821144104,0.40902551469781834,1759520269019504378,
-0.11989891529083252,0.4372948408126831,0.3749152662181218,1759520269051446905,
0.0627545714378357,-0.047729313373565674,0.4272490605949597,1759520269078088339,
0.015952885150909424,-0.08650088310241699,0.38078457302705204,1759520269108049525,
0.3240048289299011,0.07858234643936157,0.3587771255887651,1759520269138066182,
-0.12551242113113403,0.25147825479507446,0.3605708694467237,1759520269167123960,
-0.07446825504302979,0.04388725757598877,0.3642266145746498,1759520269198145636,
-0.08236312866210938,0.421344518661499,0.3608947316130511,1759520269228197542,
-0.11790412664413452,-0.059030234813690186,0.3560161166354275,1759520269259570616,
-0.6202073693275452,-0.095176100730896,0.3466571337708014,1759520269291903982,
0.18720722198486328,0.2194809913635254,0.45394902540786525,1759520269328303790,
-0.2217940092086792,0.4863088130950928,0.41324271410723923,1759520269358384800,
0.7387399673461914,0.17562443017959595,0.3914661154948028,1759520269388335491,
-0.2891297936439514,-0.10456228256225586,0.3655945666199503,1759520269420006885,
0.21750158071517944,0.01749587059020996,0.3743048287182616,1759520269450970050,
-0.21650725603103638,-0.13300496339797974,0.4021800110039667,1759520269478370871,
-0.12166434526443481,0.2300373911857605,0.40626186573326967,1759520269508354325,
0.3545435667037964,0.2791649103164673,0.39986578374759413,1759520269538329023,
0.0021885037422180176,0.4270172119140625,0.36829426179928104,1759520269568371990,
-0.09817993640899658,-0.22467052936553955,0.378532655409985,1759520269598379294,
-0.3267170786857605,0.07677555084228516,0.3977029445293462,1759520269628423868,
-0.392753005027771,0.20254641771316528,0.36414291229554585,1759520269659800914,
-0.5070592164993286,0.2010202407836914,0.352171417526045,1759520269691565209,
0.05954313278198242,0.27201545238494873,0.4226719551852244,1759520269718495072,
-0.007417559623718262,0.18040978908538818,0.38741852788570896,1759520269748550609,
-0.3420347571372986,0.1770346760749817,0.39682183250854863,1759520269778566153,
0.17014741897583008,0.323311984539032,0.3874999021137027,1759520269808598766,
0.11195152997970581,0.6100548505783081,0.38142971132429354,1759520269838553478,
0.05645197629928589,0.31599104404449463,0.37132339629914857,1759520269868644804,
-0.24041235446929932,0.0491405725479126,0.33889941630466297,1759520269899660617,
0.046976685523986816,-0.22306644916534424,0.35176910090370317,1759520269931899840,
0.0073729753494262695,0.5950482487678528,0.43306787971151056,1759520269958750543,
0.08291035890579224,0.5483810901641846,0.3889327293898568,1759520269988675387,
-0.13032662868499756,0.13501018285751343,0.39584181322994205,1759520270018696020,
0.00306016206741333,0.007904231548309326,0.4200744934222383,1759520270048710966,
-0.27217257022857666,-0.0006797909736633301,0.4367619534799876,1759520270078707334,
-0.10834699869155884,0.031260788440704346,0.4020388368112114,1759520270108740913,
0.17302358150482178,0.2033025622367859,0.37183594287731014,1759520270138684350,
0.0878567099571228,0.05684983730316162,0.35452231369831383,1759520270170601180,
-0.22259998321533203,0.2664676308631897,0.38468189526643104,1759520270198959343,
0.3650178909301758,0.34513670206069946,0.33148978057529377,1759520270229075285,
-0.14638268947601318,0.10213804244995117,0.34409141514144886,1759520270258870315,
-0.0708855390548706,-0.1407424807548523,0.37178260502262866,1759520270288924183,
0.29478156566619873,1.8115577697753906,0.42909515647765695,1759520270318925838,
-0.28868532180786133,-0.30457574129104614,0.39450177662763797,1759520270348925121,
0.49657052755355835,0.18200170993804932,0.38389552067798416,1759520270380323200,
0.08302450180053711,0.1720520257949829,0.3789224412966161,1759520270411923055,
0.4867445230484009,-0.007864296436309814,0.4100991749140033,1759520270439073202,
-0.07474464178085327,-0.13716477155685425,0.34239638163073594,1759520270469008255,
-0.1732141375541687,0.202828049659729,0.31189391411390266,1759520270491712936,
0.3406766653060913,0.07447421550750732,0.4093589687537842,1759520270528118631,
0.4305587410926819,0.3837811350822449,0.37455995787678664,1759520270559050275,
0.020197808742523193,-0.08002787828445435,0.406887743745954,1759520270589054215,
-0.2247956395149231,-0.4725625514984131,0.40683160818269665,1759520270619654827,
0.003865182399749756,0.27917224168777466,0.3764332200208156,1759520270651804167,
-0.05096083879470825,0.3059351444244385,0.4485135875065248,1759520270679175037,
-0.20032471418380737,-0.1794370412826538,0.4127693043606532,1759520270709225774,
-0.30048203468322754,-0.4614883065223694,0.4357265566427599,1759520270739159874,
-0.1359536051750183,-0.2242228388786316,0.4165835464783885,1759520270769214257,
-0.004576981067657471,0.5528243780136108,0.35867962111102186,1759520270799222469,
-0.09041726589202881,0.3481951355934143,0.36479316307896253,1759520270829277787,
0.08229231834411621,0.1241489052772522,0.40646367968848807,1759520270859719563,
-0.13331323862075806,0.16731423139572144,0.3839601401132551,1759520270892260121,
-0.15888935327529907,0.1975516676902771,0.48202151128950477,1759520270919363457,
0.18622630834579468,0.3674843907356262,0.43997672316462744,1759520270949362343,
0.09125363826751709,0.6097594499588013,0.42793324943379607,1759520270979364252,
-0.4799261689186096,-0.07570350170135498,0.3991777635837712,1759520271009372353,
0.13046622276306152,-0.04273420572280884,0.3707762871719809,1759520271039360773,
-0.09280860424041748,0.09724634885787964,0.363881463749421,1759520271069429807,
0.05025601387023926,0.3516753315925598,0.38152649648113834,1759520271099680415,
